time,.header.seq,.header.stamp.secs,.header.stamp.nsecs,.header.frame_id,.orientation.x,.orientation.y,.orientation.z,.orientation.w,.orientation_covariance,.angular_velocity.x,.angular_velocity.y,.angular_velocity.z,.angular_velocity_covariance,.linear_acceleration.x,.linear_acceleration.y,.linear_acceleration.z,.linear_acceleration_covariance
1970/01/01/01:00:06.594000,647,6,540000000,base,-0.000695972079876,-0.00601059844337,0.00876530940854,0.999943277231,"(2.6030820491461885e-07, 0.0, 0.0, 0.0, 2.6030820491461885e-07, 0.0, 0.0, 0.0, 0.0)",-0.00641284492516,-0.00680783610769,-0.00346108640169,"(2.5e-05, 0.0, 0.0, 0.0, 2.5e-05, 0.0, 0.0, 0.0, 2.5e-05)",0.122053330267,-0.00861798634919,9.79295796485,"(2.5e-05, 0.0, 0.0, 0.0, 2.5e-05, 0.0, 0.0, 0.0, 2.5e-05)"
1970/01/01/01:00:06.594000,648,6,550000000,base,-0.000695965077782,-0.00601059437567,0.00876524407785,0.999943277833,"(2.6030820491461885e-07, 0.0, 0.0, 0.0, 2.6030820491461885e-07, 0.0, 0.0, 0.0, 0.0)",-0.00363857591816,-0.00352086413273,-0.00976799454025,"(2.5e-05, 0.0, 0.0, 0.0, 2.5e-05, 0.0, 0.0, 0.0, 2.5e-05)",0.121740889498,-0.0116194926572,9.80206538997,"(2.5e-05, 0.0, 0.0, 0.0, 2.5e-05, 0.0, 0.0, 0.0, 2.5e-05)"
1970/01/01/01:00:06.594000,649,6,560000000,base,-0.000695933750985,-0.00601069430365,0.00876517841944,0.99994327783,"(2.6030820491461885e-07, 0.0, 0.0, 0.0, 2.6030820491461885e-07, 0.0, 0.0, 0.0, 0.0)",-0.00616493562965,-0.00521366969671,-0.00808299806729,"(2.5e-05, 0.0, 0.0, 0.0, 2.5e-05, 0.0, 0.0, 0.0, 2.5e-05)",0.112388059647,-0.016798978223,9.79514987346,"(2.5e-05, 0.0, 0.0, 0.0, 2.5e-05, 0.0, 0.0, 0.0, 2.5e-05)"
1970/01/01/01:00:06.594000,650,6,570000000,base,-0.000695876535293,-0.00601075242284,0.00876511256089,0.999943278098,"(2.6030820491461885e-07, 0.0, 0.0, 0.0, 2.6030820491461885e-07, 0.0, 0.0, 0.0, 0.0)",0.00734148162107,0.00187537131212,-0.0101812966199,"(2.5e-05, 0.0, 0.0, 0.0, 2.5e-05, 0.0, 0.0, 0.0, 2.5e-05)",0.117856538965,-0.00513208810747,9.80376055332,"(2.5e-05, 0.0, 0.0, 0.0, 2.5e-05, 0.0, 0.0, 0.0, 2.5e-05)"
1970/01/01/01:00:06.594000,651,6,580000000,base,-0.000695859541038,-0.00601078059638,0.00876504686086,0.999943278516,"(2.6030820491461885e-07, 0.0, 0.0, 0.0, 2.6030820491461885e-07, 0.0, 0.0, 0.0, 0.0)",-0.000892702620561,-0.00377330526455,-0.00978402324505,"(2.5e-05, 0.0, 0.0, 0.0, 2.5e-05, 0.0, 0.0, 0.0, 2.5e-05)",0.114571003692,-0.0135688334133,9.8013220159,"(2.5e-05, 0.0, 0.0, 0.0, 2.5e-05, 0.0, 0.0, 0.0, 2.5e-05)"
1970/01/01/01:00:06.594000,652,6,590000000,base,-0.000695902633507,-0.006010857009,0.00876498135969,0.999943278601,"(2.6030820491461885e-07, 0.0, 0.0, 0.0, 2.6030820491461885e-07, 0.0, 0.0, 0.0, 0.0)",0.000751461320004,0.000658269635375,-0.0115072760371,"(2.5e-05, 0.0, 0.0, 0.0, 2.5e-05, 0.0, 0.0, 0.0, 2.5e-05)",0.115182998592,-0.0171589360724,9.79923784056,"(2.5e-05, 0.0, 0.0, 0.0, 2.5e-05, 0.0, 0.0, 0.0, 2.5e-05)"
1970/01/01/01:00:06.600000,653,6,600000000,base,-0.000695919006856,-0.00601088679813,0.00876491566377,0.999943278986,"(2.6030820491461885e-07, 0.0, 0.0, 0.0, 2.6030820491461885e-07, 0.0, 0.0, 0.0, 0.0)",0.00241672815866,-0.0110405123353,-0.011074976772,"(2.5e-05, 0.0, 0.0, 0.0, 2.5e-05, 0.0, 0.0, 0.0, 2.5e-05)",0.123290298273,-0.0166534784502,9.79610641908,"(2.5e-05, 0.0, 0.0, 0.0, 2.5e-05, 0.0, 0.0, 0.0, 2.5e-05)"
1970/01/01/01:00:06.610000,654,6,610000000,base,-0.00069584550231,-0.00601092105569,0.00876484937651,0.999943279413,"(2.6030820491461885e-07, 0.0, 0.0, 0.0, 2.6030820491461885e-07, 0.0, 0.0, 0.0, 0.0)",0.00457156543465,-0.00473214922738,-0.0177941820009,"(2.5e-05, 0.0, 0.0, 0.0, 2.5e-05, 0.0, 0.0, 0.0, 2.5e-05)",0.118511747334,-0.0149344812038,9.79944337611,"(2.5e-05, 0.0, 0.0, 0.0, 2.5e-05, 0.0, 0.0, 0.0, 2.5e-05)"
1970/01/01/01:00:06.620000,655,6,620000000,base,-0.000695856662745,-0.00601098973169,0.00876478344284,0.99994327957,"(2.6030820491461885e-07, 0.0, 0.0, 0.0, 2.6030820491461885e-07, 0.0, 0.0, 0.0, 0.0)",0.000316181518835,-0.00127835887321,-0.0107103004249,"(2.5e-05, 0.0, 0.0, 0.0, 2.5e-05, 0.0, 0.0, 0.0, 2.5e-05)",0.121052562637,-0.0153994011642,9.798622105,"(2.5e-05, 0.0, 0.0, 0.0, 2.5e-05, 0.0, 0.0, 0.0, 2.5e-05)"
1970/01/01/01:00:06.634000,656,6,630000000,base,-0.000695957828145,-0.00601112736341,0.00876471786234,0.999943279247,"(2.6030820491461885e-07, 0.0, 0.0, 0.0, 2.6030820491461885e-07, 0.0, 0.0, 0.0, 0.0)",0.00337138452253,-0.00852383496796,-0.00578417105955,"(2.5e-05, 0.0, 0.0, 0.0, 2.5e-05, 0.0, 0.0, 0.0, 2.5e-05)",0.119657924704,-0.00849164742483,9.80531201772,"(2.5e-05, 0.0, 0.0, 0.0, 2.5e-05, 0.0, 0.0, 0.0, 2.5e-05)"
1970/01/01/01:00:06.640000,657,6,640000000,base,-0.00069596876617,-0.00601123112198,0.00876465172888,0.999943279195,"(2.6030820491461885e-07, 0.0, 0.0, 0.0, 2.6030820491461885e-07, 0.0, 0.0, 0.0, 0.0)",0.00119240776489,-0.00238996163858,-0.0102069331429,"(2.5e-05, 0.0, 0.0, 0.0, 2.5e-05, 0.0, 0.0, 0.0, 2.5e-05)",0.117753982086,-0.0103417454913,9.80327947615,"(2.5e-05, 0.0, 0.0, 0.0, 2.5e-05, 0.0, 0.0, 0.0, 2.5e-05)"
1970/01/01/01:00:06.650000,658,6,650000000,base,-0.000696017887416,-0.00601122759031,0.00876458582593,0.99994327976,"(2.6030820491461885e-07, 0.0, 0.0, 0.0, 2.6030820491461885e-07, 0.0, 0.0, 0.0, 0.0)",0.000122863480304,0.000549203890386,-0.00369231141985,"(2.5e-05, 0.0, 0.0, 0.0, 2.5e-05, 0.0, 0.0, 0.0, 2.5e-05)",0.113802112907,-0.0196681080735,9.80195429933,"(2.5e-05, 0.0, 0.0, 0.0, 2.5e-05, 0.0, 0.0, 0.0, 2.5e-05)"
1970/01/01/01:00:06.660000,659,6,660000000,base,-0.000696002471304,-0.00601125868982,0.00876451945294,0.999943280166,"(2.6030820491461885e-07, 0.0, 0.0, 0.0, 2.6030820491461885e-07, 0.0, 0.0, 0.0, 0.0)",0.00414939780669,0.000842191281843,-0.012558869447,"(2.5e-05, 0.0, 0.0, 0.0, 2.5e-05, 0.0, 0.0, 0.0, 2.5e-05)",0.115663450949,-0.0176021835677,9.79229665559,"(2.5e-05, 0.0, 0.0, 0.0, 2.5e-05, 0.0, 0.0, 0.0, 2.5e-05)"
1970/01/01/01:00:06.672000,660,6,670000000,base,-0.00069599185731,-0.00601135953174,0.00876445296475,0.99994328015,"(2.6030820491461885e-07, 0.0, 0.0, 0.0, 2.6030820491461885e-07, 0.0, 0.0, 0.0, 0.0)",-0.00129815617032,-0.00106792089535,-0.0125985603016,"(2.5e-05, 0.0, 0.0, 0.0, 2.5e-05, 0.0, 0.0, 0.0, 2.5e-05)",0.133437377163,-0.00934730308282,9.79505175719,"(2.5e-05, 0.0, 0.0, 0.0, 2.5e-05, 0.0, 0.0, 0.0, 2.5e-05)"
1970/01/01/01:00:06.680000,661,6,680000000,base,-0.000695929211725,-0.00601140842368,0.00876438615881,0.999943280485,"(2.6030820491461885e-07, 0.0, 0.0, 0.0, 2.6030820491461885e-07, 0.0, 0.0, 0.0, 0.0)",0.0059389668509,-0.0068066702394,0.00157867539229,"(2.5e-05, 0.0, 0.0, 0.0, 2.5e-05, 0.0, 0.0, 0.0, 2.5e-05)",0.120878732036,-0.0124657289759,9.80147077439,"(2.5e-05, 0.0, 0.0, 0.0, 2.5e-05, 0.0, 0.0, 0.0, 2.5e-05)"
1970/01/01/01:00:06.690000,662,6,690000000,base,-0.000695983612185,-0.00601152901039,0.00876431986315,0.999943280303,"(2.6030820491461885e-07, 0.0, 0.0, 0.0, 2.6030820491461885e-07, 0.0, 0.0, 0.0, 0.0)",0.00207473120202,-0.011523240254,-0.0139917620384,"(2.5e-05, 0.0, 0.0, 0.0, 2.5e-05, 0.0, 0.0, 0.0, 2.5e-05)",0.116360618945,-0.0128747401292,9.800130628,"(2.5e-05, 0.0, 0.0, 0.0, 2.5e-05, 0.0, 0.0, 0.0, 2.5e-05)"
1970/01/01/01:00:06.700000,663,6,700000000,base,-0.000695951324551,-0.00601164406907,0.00876425301703,0.99994328022,"(2.6030820491461885e-07, 0.0, 0.0, 0.0, 2.6030820491461885e-07, 0.0, 0.0, 0.0, 0.0)",-0.00348832970402,-7.59769903695e-05,-0.00556314459272,"(2.5e-05, 0.0, 0.0, 0.0, 2.5e-05, 0.0, 0.0, 0.0, 2.5e-05)",0.124267889184,-0.021634940472,9.8028668011,"(2.5e-05, 0.0, 0.0, 0.0, 2.5e-05, 0.0, 0.0, 0.0, 2.5e-05)"
1970/01/01/01:00:06.710000,664,6,710000000,base,-0.000695967068967,-0.00601178994969,0.00876418633773,0.999943279916,"(2.6030820491461885e-07, 0.0, 0.0, 0.0, 2.6030820491461885e-07, 0.0, 0.0, 0.0, 0.0)",-0.00998752138782,-0.00468191106328,-0.0148916235422,"(2.5e-05, 0.0, 0.0, 0.0, 2.5e-05, 0.0, 0.0, 0.0, 2.5e-05)",0.114643247162,-0.0176336886841,9.80438308071,"(2.5e-05, 0.0, 0.0, 0.0, 2.5e-05, 0.0, 0.0, 0.0, 2.5e-05)"
1970/01/01/01:00:06.720000,665,6,720000000,base,-0.000695928587553,-0.00601190921001,0.00876411931066,0.999943279813,"(2.6030820491461885e-07, 0.0, 0.0, 0.0, 2.6030820491461885e-07, 0.0, 0.0, 0.0, 0.0)",0.00625278655394,0.00069892106177,-0.0175565153686,"(2.5e-05, 0.0, 0.0, 0.0, 2.5e-05, 0.0, 0.0, 0.0, 2.5e-05)",0.115035310809,-0.0217330001425,9.79263133149,"(2.5e-05, 0.0, 0.0, 0.0, 2.5e-05, 0.0, 0.0, 0.0, 2.5e-05)"
1970/01/01/01:00:06.730000,666,6,730000000,base,-0.000695915012283,-0.00601195941765,0.0087640524164,0.999943280107,"(2.6030820491461885e-07, 0.0, 0.0, 0.0, 2.6030820491461885e-07, 0.0, 0.0, 0.0, 0.0)",0.00206887497685,-0.000575102891124,-0.0125930574963,"(2.5e-05, 0.0, 0.0, 0.0, 2.5e-05, 0.0, 0.0, 0.0, 2.5e-05)",0.108548976845,-0.00592453752435,9.7943623493,"(2.5e-05, 0.0, 0.0, 0.0, 2.5e-05, 0.0, 0.0, 0.0, 2.5e-05)"
1970/01/01/01:00:06.741000,667,6,740000000,base,-0.000695909180688,-0.00601200516439,0.00876398550125,0.999943280423,"(2.6030820491461885e-07, 0.0, 0.0, 0.0, 2.6030820491461885e-07, 0.0, 0.0, 0.0, 0.0)",0.00382360882236,-0.00114403821381,-0.00344318740701,"(2.5e-05, 0.0, 0.0, 0.0, 2.5e-05, 0.0, 0.0, 0.0, 2.5e-05)",0.115539378176,-0.0125376537855,9.78833983965,"(2.5e-05, 0.0, 0.0, 0.0, 2.5e-05, 0.0, 0.0, 0.0, 2.5e-05)"
1970/01/01/01:00:06.750000,668,6,750000000,base,-0.000695875361538,-0.00601216167075,0.00876391826154,0.999943280095,"(2.6030820491461885e-07, 0.0, 0.0, 0.0, 2.6030820491461885e-07, 0.0, 0.0, 0.0, 0.0)",0.00772081623948,-0.0118818749194,-0.0158451284264,"(2.5e-05, 0.0, 0.0, 0.0, 2.5e-05, 0.0, 0.0, 0.0, 2.5e-05)",0.11074819379,-0.0144131971127,9.79864476384,"(2.5e-05, 0.0, 0.0, 0.0, 2.5e-05, 0.0, 0.0, 0.0, 2.5e-05)"
1970/01/01/01:00:06.760000,669,6,760000000,base,-0.000695893193852,-0.00601216079474,0.00876385138852,0.999943280673,"(2.6030820491461885e-07, 0.0, 0.0, 0.0, 2.6030820491461885e-07, 0.0, 0.0, 0.0, 0.0)",-0.00571583501551,-0.00741117661313,-0.0122978394637,"(2.5e-05, 0.0, 0.0, 0.0, 2.5e-05, 0.0, 0.0, 0.0, 2.5e-05)",0.118348576019,-0.0190740731946,9.79193027074,"(2.5e-05, 0.0, 0.0, 0.0, 2.5e-05, 0.0, 0.0, 0.0, 2.5e-05)"
1970/01/01/01:00:06.770000,670,6,770000000,base,-0.000695760435616,-0.00601212873134,0.00876378364203,0.999943281552,"(2.6030820491461885e-07, 0.0, 0.0, 0.0, 2.6030820491461885e-07, 0.0, 0.0, 0.0, 0.0)",0.000748916563833,-0.00205642535187,-0.0158888498215,"(2.5e-05, 0.0, 0.0, 0.0, 2.5e-05, 0.0, 0.0, 0.0, 2.5e-05)",0.118744813702,-0.0184414356234,9.79771114638,"(2.5e-05, 0.0, 0.0, 0.0, 2.5e-05, 0.0, 0.0, 0.0, 2.5e-05)"
1970/01/01/01:00:06.780000,671,6,780000000,base,-0.000695817591364,-0.00601223395098,0.00876371676229,0.999943281466,"(2.6030820491461885e-07, 0.0, 0.0, 0.0, 2.6030820491461885e-07, 0.0, 0.0, 0.0, 0.0)",-0.00106296868184,-0.0146222908786,-0.0113328653625,"(2.5e-05, 0.0, 0.0, 0.0, 2.5e-05, 0.0, 0.0, 0.0, 2.5e-05)",0.114788064724,-0.0111784747174,9.8061124077,"(2.5e-05, 0.0, 0.0, 0.0, 2.5e-05, 0.0, 0.0, 0.0, 2.5e-05)"
1970/01/01/01:00:06.790000,672,6,790000000,base,-0.000695930403232,-0.00601228855119,0.00876365017665,0.999943281643,"(2.6030820491461885e-07, 0.0, 0.0, 0.0, 2.6030820491461885e-07, 0.0, 0.0, 0.0, 0.0)",0.00217225458963,-0.0100911841376,0.000561034349387,"(2.5e-05, 0.0, 0.0, 0.0, 2.5e-05, 0.0, 0.0, 0.0, 2.5e-05)",0.114493081637,-0.0131135145181,9.80173453003,"(2.5e-05, 0.0, 0.0, 0.0, 2.5e-05, 0.0, 0.0, 0.0, 2.5e-05)"
1970/01/01/01:00:06.801000,673,6,800000000,base,-0.000695963176435,-0.00601238688469,0.00876358304437,0.999943281617,"(2.6030820491461885e-07, 0.0, 0.0, 0.0, 2.6030820491461885e-07, 0.0, 0.0, 0.0, 0.0)",0.00877314360208,0.00333145613401,-0.0177063694497,"(2.5e-05, 0.0, 0.0, 0.0, 2.5e-05, 0.0, 0.0, 0.0, 2.5e-05)",0.117993939467,-0.0226570575638,9.79646724485,"(2.5e-05, 0.0, 0.0, 0.0, 2.5e-05, 0.0, 0.0, 0.0, 2.5e-05)"
1970/01/01/01:00:06.810000,674,6,810000000,base,-0.000696055751331,-0.00601250224099,0.00876351616912,0.999943281445,"(2.6030820491461885e-07, 0.0, 0.0, 0.0, 2.6030820491461885e-07, 0.0, 0.0, 0.0, 0.0)",0.000476797645755,-0.00159254097328,-0.0234592970732,"(2.5e-05, 0.0, 0.0, 0.0, 2.5e-05, 0.0, 0.0, 0.0, 2.5e-05)",0.11853528763,-0.0155308009856,9.7867254355,"(2.5e-05, 0.0, 0.0, 0.0, 2.5e-05, 0.0, 0.0, 0.0, 2.5e-05)"
1970/01/01/01:00:06.819000,675,6,820000000,base,-0.000696070214946,-0.00601253630821,0.00876344887524,0.99994328182,"(2.6030820491461885e-07, 0.0, 0.0, 0.0, 2.6030820491461885e-07, 0.0, 0.0, 0.0, 0.0)",-0.00556647328914,0.00679244984071,-0.00246847161502,"(2.5e-05, 0.0, 0.0, 0.0, 2.5e-05, 0.0, 0.0, 0.0, 2.5e-05)",0.117725595908,-0.0117029955731,9.79386118845,"(2.5e-05, 0.0, 0.0, 0.0, 2.5e-05, 0.0, 0.0, 0.0, 2.5e-05)"
1970/01/01/01:00:06.830000,676,6,830000000,base,-0.000696052808627,-0.00601254924484,0.00876338136559,0.999943282346,"(2.6030820491461885e-07, 0.0, 0.0, 0.0, 2.6030820491461885e-07, 0.0, 0.0, 0.0, 0.0)",-0.00287760327391,-0.000196238028768,-0.0210093654619,"(2.5e-05, 0.0, 0.0, 0.0, 2.5e-05, 0.0, 0.0, 0.0, 2.5e-05)",0.114231523466,-0.0142448883958,9.80123295748,"(2.5e-05, 0.0, 0.0, 0.0, 2.5e-05, 0.0, 0.0, 0.0, 2.5e-05)"
1970/01/01/01:00:06.840000,677,6,840000000,base,-0.00069605897962,-0.00601266808133,0.00876331383261,0.999943282219,"(2.6030820491461885e-07, 0.0, 0.0, 0.0, 2.6030820491461885e-07, 0.0, 0.0, 0.0, 0.0)",0.00800331405423,-0.00255315366053,-0.00774958272378,"(2.5e-05, 0.0, 0.0, 0.0, 2.5e-05, 0.0, 0.0, 0.0, 2.5e-05)",0.123776800784,-0.0199480261056,9.79216819925,"(2.5e-05, 0.0, 0.0, 0.0, 2.5e-05, 0.0, 0.0, 0.0, 2.5e-05)"
1970/01/01/01:00:06.850000,678,6,850000000,base,-0.00069604225274,-0.00601267467517,0.00876324621968,0.999943282784,"(2.6030820491461885e-07, 0.0, 0.0, 0.0, 2.6030820491461885e-07, 0.0, 0.0, 0.0, 0.0)",0.00539701931386,-0.0089178017574,-0.00874411346238,"(2.5e-05, 0.0, 0.0, 0.0, 2.5e-05, 0.0, 0.0, 0.0, 2.5e-05)",0.125261276215,-0.0138292712499,9.80438620277,"(2.5e-05, 0.0, 0.0, 0.0, 2.5e-05, 0.0, 0.0, 0.0, 2.5e-05)"
1970/01/01/01:00:06.861000,679,6,860000000,base,-0.000696007923595,-0.00601279982466,0.00876317834459,0.99994328265,"(2.6030820491461885e-07, 0.0, 0.0, 0.0, 2.6030820491461885e-07, 0.0, 0.0, 0.0, 0.0)",0.00817885468705,0.00121645051636,-0.012898124347,"(2.5e-05, 0.0, 0.0, 0.0, 2.5e-05, 0.0, 0.0, 0.0, 2.5e-05)",0.12063585273,-0.00381290117601,9.81394300671,"(2.5e-05, 0.0, 0.0, 0.0, 2.5e-05, 0.0, 0.0, 0.0, 2.5e-05)"
1970/01/01/01:00:06.870000,680,6,870000000,base,-0.000696089682874,-0.00601286626899,0.00876311111539,0.999943282783,"(2.6030820491461885e-07, 0.0, 0.0, 0.0, 2.6030820491461885e-07, 0.0, 0.0, 0.0, 0.0)",0.00527093508034,0.00659000428253,-0.000316923633284,"(2.5e-05, 0.0, 0.0, 0.0, 2.5e-05, 0.0, 0.0, 0.0, 2.5e-05)",0.115203738997,-0.00820305164807,9.79236353134,"(2.5e-05, 0.0, 0.0, 0.0, 2.5e-05, 0.0, 0.0, 0.0, 2.5e-05)"
1970/01/01/01:00:06.882000,681,6,880000000,base,-0.000696073307112,-0.00601294954006,0.00876304327152,0.999943282888,"(2.6030820491461885e-07, 0.0, 0.0, 0.0, 2.6030820491461885e-07, 0.0, 0.0, 0.0, 0.0)",-0.0113913961939,0.00117683886575,-0.0147205565918,"(2.5e-05, 0.0, 0.0, 0.0, 2.5e-05, 0.0, 0.0, 0.0, 2.5e-05)",0.126379748823,-0.0206905512262,9.79020581382,"(2.5e-05, 0.0, 0.0, 0.0, 2.5e-05, 0.0, 0.0, 0.0, 2.5e-05)"
1970/01/01/01:00:06.890000,682,6,890000000,base,-0.00069593266121,-0.00601303937276,0.0087629746779,0.999943283047,"(2.6030820491461885e-07, 0.0, 0.0, 0.0, 2.6030820491461885e-07, 0.0, 0.0, 0.0, 0.0)",0.0102821917482,-0.00130207523202,-0.00755086212022,"(2.5e-05, 0.0, 0.0, 0.0, 2.5e-05, 0.0, 0.0, 0.0, 2.5e-05)",0.118094965079,-0.0172122999492,9.79882195975,"(2.5e-05, 0.0, 0.0, 0.0, 2.5e-05, 0.0, 0.0, 0.0, 2.5e-05)"
1970/01/01/01:00:06.900000,683,6,900000000,base,-0.000696040316335,-0.00601309633426,0.00876290744467,0.999943283218,"(2.6030820491461885e-07, 0.0, 0.0, 0.0, 2.6030820491461885e-07, 0.0, 0.0, 0.0, 0.0)",-0.00848552754312,0.00110157390523,-0.0136370865815,"(2.5e-05, 0.0, 0.0, 0.0, 2.5e-05, 0.0, 0.0, 0.0, 2.5e-05)",0.113592914408,-0.0155269941864,9.79864318511,"(2.5e-05, 0.0, 0.0, 0.0, 2.5e-05, 0.0, 0.0, 0.0, 2.5e-05)"
1970/01/01/01:00:06.910000,684,6,910000000,base,-0.000696120988522,-0.00601317499892,0.00876283999077,0.99994328328,"(2.6030820491461885e-07, 0.0, 0.0, 0.0, 2.6030820491461885e-07, 0.0, 0.0, 0.0, 0.0)",-0.00369385495085,-0.0137993591773,-0.00776137236189,"(2.5e-05, 0.0, 0.0, 0.0, 2.5e-05, 0.0, 0.0, 0.0, 2.5e-05)",0.116677310397,-0.0223544368507,9.79680270734,"(2.5e-05, 0.0, 0.0, 0.0, 2.5e-05, 0.0, 0.0, 0.0, 2.5e-05)"
1970/01/01/01:00:06.920000,685,6,920000000,base,-0.000696019183139,-0.00601325311506,0.00876277147234,0.999943283482,"(2.6030820491461885e-07, 0.0, 0.0, 0.0, 2.6030820491461885e-07, 0.0, 0.0, 0.0, 0.0)",-0.00439062508832,-0.00541594827933,-0.0104852906948,"(2.5e-05, 0.0, 0.0, 0.0, 2.5e-05, 0.0, 0.0, 0.0, 2.5e-05)",0.129746216465,-0.0177412744971,9.80033301007,"(2.5e-05, 0.0, 0.0, 0.0, 2.5e-05, 0.0, 0.0, 0.0, 2.5e-05)"
1970/01/01/01:00:06.930000,686,6,930000000,base,-0.000696021134247,-0.00601314961784,0.0087627036496,0.999943284697,"(2.6030820491461885e-07, 0.0, 0.0, 0.0, 2.6030820491461885e-07, 0.0, 0.0, 0.0, 0.0)",0.00573633126655,-0.00475012312514,-0.0132000690884,"(2.5e-05, 0.0, 0.0, 0.0, 2.5e-05, 0.0, 0.0, 0.0, 2.5e-05)",0.126414606549,-0.0167687975643,9.79739612548,"(2.5e-05, 0.0, 0.0, 0.0, 2.5e-05, 0.0, 0.0, 0.0, 2.5e-05)"
1970/01/01/01:00:06.940000,687,6,940000000,base,-0.000696095011977,-0.00601330055296,0.00876263594457,0.999943284331,"(2.6030820491461885e-07, 0.0, 0.0, 0.0, 2.6030820491461885e-07, 0.0, 0.0, 0.0, 0.0)",0.00106607870515,-0.0088982570753,-0.0161430487758,"(2.5e-05, 0.0, 0.0, 0.0, 2.5e-05, 0.0, 0.0, 0.0, 2.5e-05)",0.112444290074,-0.00749461878308,9.80300892084,"(2.5e-05, 0.0, 0.0, 0.0, 2.5e-05, 0.0, 0.0, 0.0, 2.5e-05)"
1970/01/01/01:00:06.950000,688,6,950000000,base,-0.000696112145416,-0.00601336448336,0.00876256795662,0.999943284531,"(2.6030820491461885e-07, 0.0, 0.0, 0.0, 2.6030820491461885e-07, 0.0, 0.0, 0.0, 0.0)",-0.00430994767234,-0.00482859505568,-0.0129047176659,"(2.5e-05, 0.0, 0.0, 0.0, 2.5e-05, 0.0, 0.0, 0.0, 2.5e-05)",0.125726380447,-0.0126864871719,9.79053621055,"(2.5e-05, 0.0, 0.0, 0.0, 2.5e-05, 0.0, 0.0, 0.0, 2.5e-05)"
1970/01/01/01:00:06.960000,689,6,960000000,base,-0.000696045788832,-0.00601332213764,0.00876249955543,0.999943285431,"(2.6030820491461885e-07, 0.0, 0.0, 0.0, 2.6030820491461885e-07, 0.0, 0.0, 0.0, 0.0)",0.0053449704192,-0.00443127706185,-0.00700836395832,"(2.5e-05, 0.0, 0.0, 0.0, 2.5e-05, 0.0, 0.0, 0.0, 2.5e-05)",0.116254201696,-0.00917256734995,9.80741120292,"(2.5e-05, 0.0, 0.0, 0.0, 2.5e-05, 0.0, 0.0, 0.0, 2.5e-05)"
1970/01/01/01:00:06.969000,690,6,970000000,base,-0.000695979753054,-0.00601334319049,0.00876243105178,0.999943285951,"(2.6030820491461885e-07, 0.0, 0.0, 0.0, 2.6030820491461885e-07, 0.0, 0.0, 0.0, 0.0)",0.00724494420019,-0.00868745695347,-0.0130751117522,"(2.5e-05, 0.0, 0.0, 0.0, 2.5e-05, 0.0, 0.0, 0.0, 2.5e-05)",0.125157399318,-0.0186943574832,9.79953550602,"(2.5e-05, 0.0, 0.0, 0.0, 2.5e-05, 0.0, 0.0, 0.0, 2.5e-05)"
1970/01/01/01:00:06.980000,691,6,980000000,base,-0.000695834170165,-0.00601333256843,0.00876236208955,0.99994328672,"(2.6030820491461885e-07, 0.0, 0.0, 0.0, 2.6030820491461885e-07, 0.0, 0.0, 0.0, 0.0)",-0.00326219324833,-0.0147022783643,-0.0143427999696,"(2.5e-05, 0.0, 0.0, 0.0, 2.5e-05, 0.0, 0.0, 0.0, 2.5e-05)",0.128044228768,-0.0208535564846,9.79363739421,"(2.5e-05, 0.0, 0.0, 0.0, 2.5e-05, 0.0, 0.0, 0.0, 2.5e-05)"
1970/01/01/01:00:06.990000,692,6,990000000,base,-0.000695924836276,-0.0060133622813,0.00876229436037,0.999943287072,"(2.6030820491461885e-07, 0.0, 0.0, 0.0, 2.6030820491461885e-07, 0.0, 0.0, 0.0, 0.0)",-0.00643498540814,-0.000428679132395,-0.0168376803977,"(2.5e-05, 0.0, 0.0, 0.0, 2.5e-05, 0.0, 0.0, 0.0, 2.5e-05)",0.114147046635,-0.0182477988118,9.79671328429,"(2.5e-05, 0.0, 0.0, 0.0, 2.5e-05, 0.0, 0.0, 0.0, 2.5e-05)"
1970/01/01/01:00:07.000000,693,7,0,base,-0.000695934317915,-0.00601341769481,0.00876222611206,0.99994328733,"(2.6030820491461885e-07, 0.0, 0.0, 0.0, 2.6030820491461885e-07, 0.0, 0.0, 0.0, 0.0)",0.00329173885725,0.000407453562318,-0.0118892878579,"(2.5e-05, 0.0, 0.0, 0.0, 2.5e-05, 0.0, 0.0, 0.0, 2.5e-05)",0.115930058225,-0.0176298635755,9.79848432312,"(2.5e-05, 0.0, 0.0, 0.0, 2.5e-05, 0.0, 0.0, 0.0, 2.5e-05)"
1970/01/01/01:00:07.010000,694,7,10000000,base,-0.00069587162581,-0.00601348952764,0.008762157404,0.999943287544,"(2.6030820491461885e-07, 0.0, 0.0, 0.0, 2.6030820491461885e-07, 0.0, 0.0, 0.0, 0.0)",-0.00131179823188,-0.0112728860223,-0.00667394767917,"(2.5e-05, 0.0, 0.0, 0.0, 2.5e-05, 0.0, 0.0, 0.0, 2.5e-05)",0.109727814667,-0.0280864744886,9.79939150665,"(2.5e-05, 0.0, 0.0, 0.0, 2.5e-05, 0.0, 0.0, 0.0, 2.5e-05)"
1970/01/01/01:00:07.020000,695,7,20000000,base,-0.000695781307495,-0.00601361236222,0.00876208845285,0.999943287472,"(2.6030820491461885e-07, 0.0, 0.0, 0.0, 2.6030820491461885e-07, 0.0, 0.0, 0.0, 0.0)",-0.000379774181182,-0.0180160929488,-0.00994503128402,"(2.5e-05, 0.0, 0.0, 0.0, 2.5e-05, 0.0, 0.0, 0.0, 2.5e-05)",0.117693800714,-0.0140323020043,9.79262537434,"(2.5e-05, 0.0, 0.0, 0.0, 2.5e-05, 0.0, 0.0, 0.0, 2.5e-05)"
1970/01/01/01:00:07.030000,696,7,30000000,base,-0.00069567455839,-0.0060137340835,0.0087620193696,0.99994328742,"(2.6030820491461885e-07, 0.0, 0.0, 0.0, 2.6030820491461885e-07, 0.0, 0.0, 0.0, 0.0)",0.00539895314233,-0.00147349104218,-0.0074962729876,"(2.5e-05, 0.0, 0.0, 0.0, 2.5e-05, 0.0, 0.0, 0.0, 2.5e-05)",0.122487054426,-0.0189506035915,9.80903682618,"(2.5e-05, 0.0, 0.0, 0.0, 2.5e-05, 0.0, 0.0, 0.0, 2.5e-05)"
1970/01/01/01:00:07.040000,697,7,40000000,base,-0.000695575942882,-0.00601381345186,0.00876195032956,0.999943287616,"(2.6030820491461885e-07, 0.0, 0.0, 0.0, 2.6030820491461885e-07, 0.0, 0.0, 0.0, 0.0)",-0.00643522732512,-0.00275374772115,-0.00888259969103,"(2.5e-05, 0.0, 0.0, 0.0, 2.5e-05, 0.0, 0.0, 0.0, 2.5e-05)",0.113554880479,-0.0166060358417,9.80341454102,"(2.5e-05, 0.0, 0.0, 0.0, 2.5e-05, 0.0, 0.0, 0.0, 2.5e-05)"
1970/01/01/01:00:07.050000,698,7,50000000,base,-0.000695610643112,-0.00601387032346,0.0087618820117,0.999943287848,"(2.6030820491461885e-07, 0.0, 0.0, 0.0, 2.6030820491461885e-07, 0.0, 0.0, 0.0, 0.0)",0.00642257932374,0.00112361123573,-0.0108548098363,"(2.5e-05, 0.0, 0.0, 0.0, 2.5e-05, 0.0, 0.0, 0.0, 2.5e-05)",0.118784203737,-0.00685799170703,9.79252543005,"(2.5e-05, 0.0, 0.0, 0.0, 2.5e-05, 0.0, 0.0, 0.0, 2.5e-05)"
1970/01/01/01:00:07.060000,699,7,60000000,base,-0.000695712217888,-0.0060138318389,0.00876181411403,0.999943288604,"(2.6030820491461885e-07, 0.0, 0.0, 0.0, 2.6030820491461885e-07, 0.0, 0.0, 0.0, 0.0)",0.000961362034972,-0.00595850276446,-0.0110640720297,"(2.5e-05, 0.0, 0.0, 0.0, 2.5e-05, 0.0, 0.0, 0.0, 2.5e-05)",0.120330681265,-0.0127869492227,9.78742560296,"(2.5e-05, 0.0, 0.0, 0.0, 2.5e-05, 0.0, 0.0, 0.0, 2.5e-05)"
1970/01/01/01:00:07.071000,700,7,70000000,base,-0.000695786487748,-0.00601384518833,0.00876174597746,0.999943289069,"(2.6030820491461885e-07, 0.0, 0.0, 0.0, 2.6030820491461885e-07, 0.0, 0.0, 0.0, 0.0)",-0.00494357900359,-0.00290908124584,-0.0062363148141,"(2.5e-05, 0.0, 0.0, 0.0, 2.5e-05, 0.0, 0.0, 0.0, 2.5e-05)",0.11606608562,-0.0150709736911,9.80755647247,"(2.5e-05, 0.0, 0.0, 0.0, 2.5e-05, 0.0, 0.0, 0.0, 2.5e-05)"
1970/01/01/01:00:07.080000,701,7,80000000,base,-0.000695846846888,-0.00601398429261,0.008761677609,0.99994328879,"(2.6030820491461885e-07, 0.0, 0.0, 0.0, 2.6030820491461885e-07, 0.0, 0.0, 0.0, 0.0)",0.00535244929569,0.00397598357353,-0.0113908770272,"(2.5e-05, 0.0, 0.0, 0.0, 2.5e-05, 0.0, 0.0, 0.0, 2.5e-05)",0.11464136175,-0.0129489535082,9.80250454454,"(2.5e-05, 0.0, 0.0, 0.0, 2.5e-05, 0.0, 0.0, 0.0, 2.5e-05)"
1970/01/01/01:00:07.090000,702,7,90000000,base,-0.00069582530333,-0.0060140422882,0.00876160882143,0.999943289059,"(2.6030820491461885e-07, 0.0, 0.0, 0.0, 2.6030820491461885e-07, 0.0, 0.0, 0.0, 0.0)",-0.00293616951389,0.00331492765119,-0.0234306502989,"(2.5e-05, 0.0, 0.0, 0.0, 2.5e-05, 0.0, 0.0, 0.0, 2.5e-05)",0.114304939796,-0.00987578644929,9.80822512298,"(2.5e-05, 0.0, 0.0, 0.0, 2.5e-05, 0.0, 0.0, 0.0, 2.5e-05)"
1970/01/01/01:00:07.100000,703,7,100000000,base,-0.00069580565994,-0.00601415173233,0.00876153995955,0.999943289017,"(2.6030820491461885e-07, 0.0, 0.0, 0.0, 2.6030820491461885e-07, 0.0, 0.0, 0.0, 0.0)",-0.000669990682072,-0.00364840899161,-0.0132890237839,"(2.5e-05, 0.0, 0.0, 0.0, 2.5e-05, 0.0, 0.0, 0.0, 2.5e-05)",0.116757312116,-0.0214724080202,9.80334446272,"(2.5e-05, 0.0, 0.0, 0.0, 2.5e-05, 0.0, 0.0, 0.0, 2.5e-05)"
1970/01/01/01:00:07.110000,704,7,110000000,base,-0.000695815183825,-0.00601423649963,0.00876147124579,0.999943289103,"(2.6030820491461885e-07, 0.0, 0.0, 0.0, 2.6030820491461885e-07, 0.0, 0.0, 0.0, 0.0)",0.00173558282947,-0.0012326957435,-0.00928124918509,"(2.5e-05, 0.0, 0.0, 0.0, 2.5e-05, 0.0, 0.0, 0.0, 2.5e-05)",0.121349280573,-0.0107399335897,9.80295639968,"(2.5e-05, 0.0, 0.0, 0.0, 2.5e-05, 0.0, 0.0, 0.0, 2.5e-05)"
1970/01/01/01:00:07.120000,705,7,120000000,base,-0.000695791516991,-0.00601441605974,0.0087614022236,0.999943288644,"(2.6030820491461885e-07, 0.0, 0.0, 0.0, 2.6030820491461885e-07, 0.0, 0.0, 0.0, 0.0)",0.00405700189959,0.00621791913552,-0.0105725102904,"(2.5e-05, 0.0, 0.0, 0.0, 2.5e-05, 0.0, 0.0, 0.0, 2.5e-05)",0.118858376623,-0.0146823426684,9.80184406687,"(2.5e-05, 0.0, 0.0, 0.0, 2.5e-05, 0.0, 0.0, 0.0, 2.5e-05)"
1970/01/01/01:00:07.130000,706,7,130000000,base,-0.000695833834983,-0.00601449394791,0.00876133362644,0.999943288747,"(2.6030820491461885e-07, 0.0, 0.0, 0.0, 2.6030820491461885e-07, 0.0, 0.0, 0.0, 0.0)",0.00593036356856,-0.00404045071348,-0.00783944208249,"(2.5e-05, 0.0, 0.0, 0.0, 2.5e-05, 0.0, 0.0, 0.0, 2.5e-05)",0.12435604166,-0.0182660668097,9.79569745436,"(2.5e-05, 0.0, 0.0, 0.0, 2.5e-05, 0.0, 0.0, 0.0, 2.5e-05)"
1970/01/01/01:00:07.143000,707,7,140000000,base,-0.000695872250335,-0.00601460042168,0.0087612649459,0.999943288682,"(2.6030820491461885e-07, 0.0, 0.0, 0.0, 2.6030820491461885e-07, 0.0, 0.0, 0.0, 0.0)",-0.010175074531,-0.00560418320776,-0.016468704747,"(2.5e-05, 0.0, 0.0, 0.0, 2.5e-05, 0.0, 0.0, 0.0, 2.5e-05)",0.105150180285,-0.0193901656875,9.79228373225,"(2.5e-05, 0.0, 0.0, 0.0, 2.5e-05, 0.0, 0.0, 0.0, 2.5e-05)"
1970/01/01/01:00:07.150000,708,7,150000000,base,-0.000695821101196,-0.00601460809948,0.00876119582307,0.999943289277,"(2.6030820491461885e-07, 0.0, 0.0, 0.0, 2.6030820491461885e-07, 0.0, 0.0, 0.0, 0.0)",-0.000331001768322,-0.00554874882036,-0.00958456496035,"(2.5e-05, 0.0, 0.0, 0.0, 2.5e-05, 0.0, 0.0, 0.0, 2.5e-05)",0.118627632078,-0.0198666331502,9.79860606627,"(2.5e-05, 0.0, 0.0, 0.0, 2.5e-05, 0.0, 0.0, 0.0, 2.5e-05)"
1970/01/01/01:00:07.160000,709,7,160000000,base,-0.000695803713865,-0.00601466880308,0.00876112680496,0.999943289529,"(2.6030820491461885e-07, 0.0, 0.0, 0.0, 2.6030820491461885e-07, 0.0, 0.0, 0.0, 0.0)",0.00144776593792,-0.00610457756111,-0.0116594486141,"(2.5e-05, 0.0, 0.0, 0.0, 2.5e-05, 0.0, 0.0, 0.0, 2.5e-05)",0.109188023413,-0.0221421108594,9.79858645217,"(2.5e-05, 0.0, 0.0, 0.0, 2.5e-05, 0.0, 0.0, 0.0, 2.5e-05)"
1970/01/01/01:00:07.170000,710,7,170000000,base,-0.000695724828,-0.00601478027957,0.00876105736394,0.999943289521,"(2.6030820491461885e-07, 0.0, 0.0, 0.0, 2.6030820491461885e-07, 0.0, 0.0, 0.0, 0.0)",0.00491280615912,-0.0137994929007,-0.0116773760363,"(2.5e-05, 0.0, 0.0, 0.0, 2.5e-05, 0.0, 0.0, 0.0, 2.5e-05)",0.117829742013,-0.00593339389098,9.79948198426,"(2.5e-05, 0.0, 0.0, 0.0, 2.5e-05, 0.0, 0.0, 0.0, 2.5e-05)"
1970/01/01/01:00:07.180000,711,7,180000000,base,-0.00069567403312,-0.00601487026221,0.0087609880657,0.999943289623,"(2.6030820491461885e-07, 0.0, 0.0, 0.0, 2.6030820491461885e-07, 0.0, 0.0, 0.0, 0.0)",-0.000189692321613,-0.0118032064541,-0.00871564553276,"(2.5e-05, 0.0, 0.0, 0.0, 2.5e-05, 0.0, 0.0, 0.0, 2.5e-05)",0.116035961521,-0.0229307645431,9.79757167256,"(2.5e-05, 0.0, 0.0, 0.0, 2.5e-05, 0.0, 0.0, 0.0, 2.5e-05)"
1970/01/01/01:00:07.190000,712,7,190000000,base,-0.000695719165014,-0.00601492107433,0.00876091930456,0.999943289888,"(2.6030820491461885e-07, 0.0, 0.0, 0.0, 2.6030820491461885e-07, 0.0, 0.0, 0.0, 0.0)",-0.00544741689275,0.00242725257042,-0.00720978271658,"(2.5e-05, 0.0, 0.0, 0.0, 2.5e-05, 0.0, 0.0, 0.0, 2.5e-05)",0.112026608803,-0.0066474470537,9.79295439068,"(2.5e-05, 0.0, 0.0, 0.0, 2.5e-05, 0.0, 0.0, 0.0, 2.5e-05)"
1970/01/01/01:00:07.200000,713,7,200000000,base,-0.000695677280722,-0.00601497004757,0.00876085002836,0.99994329023,"(2.6030820491461885e-07, 0.0, 0.0, 0.0, 2.6030820491461885e-07, 0.0, 0.0, 0.0, 0.0)",0.00883053441087,-0.000251864967473,-0.0022567312919,"(2.5e-05, 0.0, 0.0, 0.0, 2.5e-05, 0.0, 0.0, 0.0, 2.5e-05)",0.116310318385,-0.0121030712711,9.79958875821,"(2.5e-05, 0.0, 0.0, 0.0, 2.5e-05, 0.0, 0.0, 0.0, 2.5e-05)"
1970/01/01/01:00:07.218000,714,7,210000000,base,-0.000695645999547,-0.00601515062423,0.00876078065794,0.999943289773,"(2.6030820491461885e-07, 0.0, 0.0, 0.0, 2.6030820491461885e-07, 0.0, 0.0, 0.0, 0.0)",0.00712602558015,-0.00357215859985,-0.0148594442549,"(2.5e-05, 0.0, 0.0, 0.0, 2.5e-05, 0.0, 0.0, 0.0, 2.5e-05)",0.109211427065,-0.0110123894859,9.79793681869,"(2.5e-05, 0.0, 0.0, 0.0, 2.5e-05, 0.0, 0.0, 0.0, 2.5e-05)"
1970/01/01/01:00:07.221000,715,7,220000000,base,-0.000695722512974,-0.00601515814133,0.0087607120154,0.999943290276,"(2.6030820491461885e-07, 0.0, 0.0, 0.0, 2.6030820491461885e-07, 0.0, 0.0, 0.0, 0.0)",-0.000752802859248,0.000592699293078,-0.0107577610608,"(2.5e-05, 0.0, 0.0, 0.0, 2.5e-05, 0.0, 0.0, 0.0, 2.5e-05)",0.109989155249,-0.0155199315587,9.80204453184,"(2.5e-05, 0.0, 0.0, 0.0, 2.5e-05, 0.0, 0.0, 0.0, 2.5e-05)"
1970/01/01/01:00:07.230000,716,7,230000000,base,-0.000695723036591,-0.00601508224629,0.00876064299563,0.999943291337,"(2.6030820491461885e-07, 0.0, 0.0, 0.0, 2.6030820491461885e-07, 0.0, 0.0, 0.0, 0.0)",-0.0044291311316,-0.00646052414264,-0.0175042472532,"(2.5e-05, 0.0, 0.0, 0.0, 2.5e-05, 0.0, 0.0, 0.0, 2.5e-05)",0.114341028639,-0.0138733856099,9.79735040338,"(2.5e-05, 0.0, 0.0, 0.0, 2.5e-05, 0.0, 0.0, 0.0, 2.5e-05)"
1970/01/01/01:00:07.240000,717,7,240000000,base,-0.000695720025553,-0.00601506149781,0.00876057387471,0.999943292069,"(2.6030820491461885e-07, 0.0, 0.0, 0.0, 2.6030820491461885e-07, 0.0, 0.0, 0.0, 0.0)",-0.00408268285469,-0.00514730416645,-0.00937099074797,"(2.5e-05, 0.0, 0.0, 0.0, 2.5e-05, 0.0, 0.0, 0.0, 2.5e-05)",0.115846585004,-0.0156641852746,9.80025022905,"(2.5e-05, 0.0, 0.0, 0.0, 2.5e-05, 0.0, 0.0, 0.0, 2.5e-05)"
1970/01/01/01:00:07.250000,718,7,250000000,base,-0.000695640700705,-0.00601511778087,0.00876050422777,0.999943292396,"(2.6030820491461885e-07, 0.0, 0.0, 0.0, 2.6030820491461885e-07, 0.0, 0.0, 0.0, 0.0)",-0.000920787401718,0.00392424845499,-0.0175863428703,"(2.5e-05, 0.0, 0.0, 0.0, 2.5e-05, 0.0, 0.0, 0.0, 2.5e-05)",0.122719240588,-0.00825927067105,9.79710567226,"(2.5e-05, 0.0, 0.0, 0.0, 2.5e-05, 0.0, 0.0, 0.0, 2.5e-05)"
1970/01/01/01:00:07.260000,719,7,260000000,base,-0.000695568096763,-0.00601516696578,0.0087604345949,0.999943292761,"(2.6030820491461885e-07, 0.0, 0.0, 0.0, 2.6030820491461885e-07, 0.0, 0.0, 0.0, 0.0)",-0.00163657096473,-0.0132094848975,-0.00972464338609,"(2.5e-05, 0.0, 0.0, 0.0, 2.5e-05, 0.0, 0.0, 0.0, 2.5e-05)",0.117224988608,-0.0205846774762,9.79453627505,"(2.5e-05, 0.0, 0.0, 0.0, 2.5e-05, 0.0, 0.0, 0.0, 2.5e-05)"
1970/01/01/01:00:07.270000,720,7,270000000,base,-0.000695545516572,-0.00601511262506,0.00876036530639,0.99994329371,"(2.6030820491461885e-07, 0.0, 0.0, 0.0, 2.6030820491461885e-07, 0.0, 0.0, 0.0, 0.0)",0.00441728850175,-0.00757274355735,-0.012933558338,"(2.5e-05, 0.0, 0.0, 0.0, 2.5e-05, 0.0, 0.0, 0.0, 2.5e-05)",0.108679476399,-0.0143603015122,9.80650556592,"(2.5e-05, 0.0, 0.0, 0.0, 2.5e-05, 0.0, 0.0, 0.0, 2.5e-05)"
1970/01/01/01:00:07.286000,721,7,280000000,base,-0.000695544516938,-0.00601516095226,0.00876029601435,0.999943294027,"(2.6030820491461885e-07, 0.0, 0.0, 0.0, 2.6030820491461885e-07, 0.0, 0.0, 0.0, 0.0)",0.00209100014044,0.00197134982929,0.00128478581884,"(2.5e-05, 0.0, 0.0, 0.0, 2.5e-05, 0.0, 0.0, 0.0, 2.5e-05)",0.116335002805,-0.0133907602776,9.79412998256,"(2.5e-05, 0.0, 0.0, 0.0, 2.5e-05, 0.0, 0.0, 0.0, 2.5e-05)"
1970/01/01/01:00:07.291000,722,7,290000000,base,-0.000695576590685,-0.00601529112913,0.00876022680233,0.999943293828,"(2.6030820491461885e-07, 0.0, 0.0, 0.0, 2.6030820491461885e-07, 0.0, 0.0, 0.0, 0.0)",-0.0108428205321,-0.00452026974222,-0.0123368713944,"(2.5e-05, 0.0, 0.0, 0.0, 2.5e-05, 0.0, 0.0, 0.0, 2.5e-05)",0.120955368378,-0.0230075500856,9.79257827928,"(2.5e-05, 0.0, 0.0, 0.0, 2.5e-05, 0.0, 0.0, 0.0, 2.5e-05)"
1970/01/01/01:00:07.300000,723,7,300000000,base,-0.000695486342107,-0.00601540573712,0.00876015689543,0.999943293814,"(2.6030820491461885e-07, 0.0, 0.0, 0.0, 2.6030820491461885e-07, 0.0, 0.0, 0.0, 0.0)",-0.00233875444833,0.00539189515165,-0.0115409618577,"(2.5e-05, 0.0, 0.0, 0.0, 2.5e-05, 0.0, 0.0, 0.0, 2.5e-05)",0.116834891734,-0.0105212277384,9.79743332195,"(2.5e-05, 0.0, 0.0, 0.0, 2.5e-05, 0.0, 0.0, 0.0, 2.5e-05)"
1970/01/01/01:00:07.310000,724,7,310000000,base,-0.000695392068544,-0.006015526491,0.00876008693252,0.999943293766,"(2.6030820491461885e-07, 0.0, 0.0, 0.0, 2.6030820491461885e-07, 0.0, 0.0, 0.0, 0.0)",-0.00353444504404,0.00530011097589,-0.0192551179621,"(2.5e-05, 0.0, 0.0, 0.0, 2.5e-05, 0.0, 0.0, 0.0, 2.5e-05)",0.120139047009,-0.0199207210938,9.79595622372,"(2.5e-05, 0.0, 0.0, 0.0, 2.5e-05, 0.0, 0.0, 0.0, 2.5e-05)"
1970/01/01/01:00:07.320000,725,7,320000000,base,-0.000695364639679,-0.00601558199253,0.00876001737423,0.999943294061,"(2.6030820491461885e-07, 0.0, 0.0, 0.0, 2.6030820491461885e-07, 0.0, 0.0, 0.0, 0.0)",-0.00656929793342,-0.00751524827343,-0.0177594958095,"(2.5e-05, 0.0, 0.0, 0.0, 2.5e-05, 0.0, 0.0, 0.0, 2.5e-05)",0.124004883646,-0.0118708661827,9.80350255312,"(2.5e-05, 0.0, 0.0, 0.0, 2.5e-05, 0.0, 0.0, 0.0, 2.5e-05)"
1970/01/01/01:00:07.330000,726,7,330000000,base,-0.000695498811894,-0.00601560694669,0.00875994871646,0.999943294419,"(2.6030820491461885e-07, 0.0, 0.0, 0.0, 2.6030820491461885e-07, 0.0, 0.0, 0.0, 0.0)",-0.000398389120449,-0.00143336970512,-0.00616358507222,"(2.5e-05, 0.0, 0.0, 0.0, 2.5e-05, 0.0, 0.0, 0.0, 2.5e-05)",0.126001922856,-0.00293732242562,9.79235363738,"(2.5e-05, 0.0, 0.0, 0.0, 2.5e-05, 0.0, 0.0, 0.0, 2.5e-05)"
1970/01/01/01:00:07.340000,727,7,340000000,base,-0.00069547944242,-0.006015603615,0.00875987920315,0.999943295061,"(2.6030820491461885e-07, 0.0, 0.0, 0.0, 2.6030820491461885e-07, 0.0, 0.0, 0.0, 0.0)",0.003188095558,-0.00739479383624,-0.00679240856134,"(2.5e-05, 0.0, 0.0, 0.0, 2.5e-05, 0.0, 0.0, 0.0, 2.5e-05)",0.11976275386,-0.00314315173086,9.79987515908,"(2.5e-05, 0.0, 0.0, 0.0, 2.5e-05, 0.0, 0.0, 0.0, 2.5e-05)"
1970/01/01/01:00:07.350000,728,7,350000000,base,-0.000695564543996,-0.00601560514545,0.00875981024041,0.999943295597,"(2.6030820491461885e-07, 0.0, 0.0, 0.0, 2.6030820491461885e-07, 0.0, 0.0, 0.0, 0.0)",-0.00780797537921,-0.0014666077868,-0.0121098347155,"(2.5e-05, 0.0, 0.0, 0.0, 2.5e-05, 0.0, 0.0, 0.0, 2.5e-05)",0.112076478937,-0.0135325585582,9.80752621633,"(2.5e-05, 0.0, 0.0, 0.0, 2.5e-05, 0.0, 0.0, 0.0, 2.5e-05)"
1970/01/01/01:00:07.360000,729,7,360000000,base,-0.000695553611382,-0.00601575027484,0.00875974058458,0.999943295342,"(2.6030820491461885e-07, 0.0, 0.0, 0.0, 2.6030820491461885e-07, 0.0, 0.0, 0.0, 0.0)",0.00399815306808,-0.00503620138149,-0.00647779525637,"(2.5e-05, 0.0, 0.0, 0.0, 2.5e-05, 0.0, 0.0, 0.0, 2.5e-05)",0.118505782461,-0.0121409631428,9.80813995609,"(2.5e-05, 0.0, 0.0, 0.0, 2.5e-05, 0.0, 0.0, 0.0, 2.5e-05)"
1970/01/01/01:00:07.370000,730,7,370000000,base,-0.000695471533643,-0.00601578901385,0.00875967060483,0.999943295779,"(2.6030820491461885e-07, 0.0, 0.0, 0.0, 2.6030820491461885e-07, 0.0, 0.0, 0.0, 0.0)",4.08332990671e-05,-0.00605454854134,-0.00702849478757,"(2.5e-05, 0.0, 0.0, 0.0, 2.5e-05, 0.0, 0.0, 0.0, 2.5e-05)",0.125585337107,-0.0100873765986,9.80024227254,"(2.5e-05, 0.0, 0.0, 0.0, 2.5e-05, 0.0, 0.0, 0.0, 2.5e-05)"
1970/01/01/01:00:07.380000,731,7,380000000,base,-0.000695424789193,-0.00601576821638,0.00875960085109,0.999943296547,"(2.6030820491461885e-07, 0.0, 0.0, 0.0, 2.6030820491461885e-07, 0.0, 0.0, 0.0, 0.0)",-0.00195447113127,-0.00789334001966,-0.0129305434038,"(2.5e-05, 0.0, 0.0, 0.0, 2.5e-05, 0.0, 0.0, 0.0, 2.5e-05)",0.122508413684,-0.0140374397404,9.81168039953,"(2.5e-05, 0.0, 0.0, 0.0, 2.5e-05, 0.0, 0.0, 0.0, 2.5e-05)"
1970/01/01/01:00:07.389000,732,7,390000000,base,-0.000695545651194,-0.00601579619558,0.00875953196025,0.999943296898,"(2.6030820491461885e-07, 0.0, 0.0, 0.0, 2.6030820491461885e-07, 0.0, 0.0, 0.0, 0.0)",-0.00348420886971,-0.00365582292916,-0.00899167643765,"(2.5e-05, 0.0, 0.0, 0.0, 2.5e-05, 0.0, 0.0, 0.0, 2.5e-05)",0.125345840489,-0.0132170272815,9.79566695136,"(2.5e-05, 0.0, 0.0, 0.0, 2.5e-05, 0.0, 0.0, 0.0, 2.5e-05)"
1970/01/01/01:00:07.400000,733,7,400000000,base,-0.000695618688731,-0.00601589880893,0.00875946270952,0.999943296837,"(2.6030820491461885e-07, 0.0, 0.0, 0.0, 2.6030820491461885e-07, 0.0, 0.0, 0.0, 0.0)",-0.00151493917135,-0.0033018900459,-0.0122875042988,"(2.5e-05, 0.0, 0.0, 0.0, 2.5e-05, 0.0, 0.0, 0.0, 2.5e-05)",0.126207903818,-0.0235072032274,9.79310625365,"(2.5e-05, 0.0, 0.0, 0.0, 2.5e-05, 0.0, 0.0, 0.0, 2.5e-05)"
1970/01/01/01:00:07.410000,734,7,410000000,base,-0.000695676772637,-0.00601586833686,0.00875939347354,0.999943297586,"(2.6030820491461885e-07, 0.0, 0.0, 0.0, 2.6030820491461885e-07, 0.0, 0.0, 0.0, 0.0)",-0.00512517694849,-0.00146734992706,-0.012621121064,"(2.5e-05, 0.0, 0.0, 0.0, 2.5e-05, 0.0, 0.0, 0.0, 2.5e-05)",0.112823091167,-0.0134562023633,9.80386395646,"(2.5e-05, 0.0, 0.0, 0.0, 2.5e-05, 0.0, 0.0, 0.0, 2.5e-05)"
1970/01/01/01:00:07.420000,735,7,420000000,base,-0.000695667696563,-0.00601603942051,0.00875932365367,0.999943297175,"(2.6030820491461885e-07, 0.0, 0.0, 0.0, 2.6030820491461885e-07, 0.0, 0.0, 0.0, 0.0)",-0.00611761312817,0.00476792482324,-0.0155675717958,"(2.5e-05, 0.0, 0.0, 0.0, 2.5e-05, 0.0, 0.0, 0.0, 2.5e-05)",0.107012214444,-0.00907071353053,9.79484203368,"(2.5e-05, 0.0, 0.0, 0.0, 2.5e-05, 0.0, 0.0, 0.0, 2.5e-05)"
1970/01/01/01:00:07.430000,736,7,430000000,base,-0.000695660092925,-0.00601605496293,0.00875925396127,0.999943297697,"(2.6030820491461885e-07, 0.0, 0.0, 0.0, 2.6030820491461885e-07, 0.0, 0.0, 0.0, 0.0)",0.00645975948243,-0.00956967218429,-0.0175492502288,"(2.5e-05, 0.0, 0.0, 0.0, 2.5e-05, 0.0, 0.0, 0.0, 2.5e-05)",0.125500003624,-0.00768746145055,9.80208667843,"(2.5e-05, 0.0, 0.0, 0.0, 2.5e-05, 0.0, 0.0, 0.0, 2.5e-05)"
1970/01/01/01:00:07.440000,737,7,440000000,base,-0.000695623967981,-0.00601623336478,0.00875918393631,0.999943297262,"(2.6030820491461885e-07, 0.0, 0.0, 0.0, 2.6030820491461885e-07, 0.0, 0.0, 0.0, 0.0)",0.00270510715685,-0.00120888558262,-0.00990094204646,"(2.5e-05, 0.0, 0.0, 0.0, 2.5e-05, 0.0, 0.0, 0.0, 2.5e-05)",0.125020741071,-0.010920420392,9.80050089466,"(2.5e-05, 0.0, 0.0, 0.0, 2.5e-05, 0.0, 0.0, 0.0, 2.5e-05)"
1970/01/01/01:00:07.450000,738,7,450000000,base,-0.000695715456366,-0.00601637033381,0.00875911463656,0.999943296982,"(2.6030820491461885e-07, 0.0, 0.0, 0.0, 2.6030820491461885e-07, 0.0, 0.0, 0.0, 0.0)",0.00352657522992,-0.00597287115117,-0.0186612376726,"(2.5e-05, 0.0, 0.0, 0.0, 2.5e-05, 0.0, 0.0, 0.0, 2.5e-05)",0.111344830626,-0.0208332676016,9.80480301772,"(2.5e-05, 0.0, 0.0, 0.0, 2.5e-05, 0.0, 0.0, 0.0, 2.5e-05)"
1970/01/01/01:00:07.460000,739,7,460000000,base,-0.000695791376677,-0.00601642960268,0.00875904529854,0.99994329718,"(2.6030820491461885e-07, 0.0, 0.0, 0.0, 2.6030820491461885e-07, 0.0, 0.0, 0.0, 0.0)",0.00619596954896,-0.00414541761294,-0.00756716167157,"(2.5e-05, 0.0, 0.0, 0.0, 2.5e-05, 0.0, 0.0, 0.0, 2.5e-05)",0.108670332923,-0.0284911987215,9.79059236176,"(2.5e-05, 0.0, 0.0, 0.0, 2.5e-05, 0.0, 0.0, 0.0, 2.5e-05)"
1970/01/01/01:00:07.470000,740,7,470000000,base,-0.000695681124324,-0.00601648753926,0.00875897490233,0.999943297524,"(2.6030820491461885e-07, 0.0, 0.0, 0.0, 2.6030820491461885e-07, 0.0, 0.0, 0.0, 0.0)",0.00534734996741,-0.00405474399195,0.00470020788467,"(2.5e-05, 0.0, 0.0, 0.0, 2.5e-05, 0.0, 0.0, 0.0, 2.5e-05)",0.114418297778,-0.015916811674,9.79846854645,"(2.5e-05, 0.0, 0.0, 0.0, 2.5e-05, 0.0, 0.0, 0.0, 2.5e-05)"
1970/01/01/01:00:07.480000,741,7,480000000,base,-0.000695683737347,-0.00601655157489,0.00875890510624,0.999943297749,"(2.6030820491461885e-07, 0.0, 0.0, 0.0, 2.6030820491461885e-07, 0.0, 0.0, 0.0, 0.0)",-0.00474103544008,-0.00324496277591,-0.00705058110282,"(2.5e-05, 0.0, 0.0, 0.0, 2.5e-05, 0.0, 0.0, 0.0, 2.5e-05)",0.119034271389,-0.0187051028108,9.79062138547,"(2.5e-05, 0.0, 0.0, 0.0, 2.5e-05, 0.0, 0.0, 0.0, 2.5e-05)"
1970/01/01/01:00:07.490000,742,7,490000000,base,-0.000695727633341,-0.00601662823398,0.008758835506,0.999943297867,"(2.6030820491461885e-07, 0.0, 0.0, 0.0, 2.6030820491461885e-07, 0.0, 0.0, 0.0, 0.0)",0.00304103070711,-0.00573035033582,-0.00987060714527,"(2.5e-05, 0.0, 0.0, 0.0, 2.5e-05, 0.0, 0.0, 0.0, 2.5e-05)",0.111647170572,-0.0219237749053,9.79810988586,"(2.5e-05, 0.0, 0.0, 0.0, 2.5e-05, 0.0, 0.0, 0.0, 2.5e-05)"
1970/01/01/01:00:07.500000,743,7,500000000,base,-0.000695759186732,-0.00601677231123,0.00875876575281,0.999943297589,"(2.6030820491461885e-07, 0.0, 0.0, 0.0, 2.6030820491461885e-07, 0.0, 0.0, 0.0, 0.0)",0.00119008287445,-0.00228651668159,-0.0125960812239,"(2.5e-05, 0.0, 0.0, 0.0, 2.5e-05, 0.0, 0.0, 0.0, 2.5e-05)",0.122222625444,-0.0180222772072,9.79120381025,"(2.5e-05, 0.0, 0.0, 0.0, 2.5e-05, 0.0, 0.0, 0.0, 2.5e-05)"
1970/01/01/01:00:07.510000,744,7,510000000,base,-0.000695751712798,-0.00601681686412,0.00875869585215,0.999943297938,"(2.6030820491461885e-07, 0.0, 0.0, 0.0, 2.6030820491461885e-07, 0.0, 0.0, 0.0, 0.0)",0.00161902869476,0.00668051652794,-0.0111624860678,"(2.5e-05, 0.0, 0.0, 0.0, 2.5e-05, 0.0, 0.0, 0.0, 2.5e-05)",0.120595446829,-0.0201874369777,9.79962925888,"(2.5e-05, 0.0, 0.0, 0.0, 2.5e-05, 0.0, 0.0, 0.0, 2.5e-05)"
1970/01/01/01:00:07.520000,745,7,520000000,base,-0.000695804865186,-0.00601687423537,0.00875862625562,0.999943298166,"(2.6030820491461885e-07, 0.0, 0.0, 0.0, 2.6030820491461885e-07, 0.0, 0.0, 0.0, 0.0)",-0.00393564137722,-0.00228205601305,-0.00261653617659,"(2.5e-05, 0.0, 0.0, 0.0, 2.5e-05, 0.0, 0.0, 0.0, 2.5e-05)",0.119299287493,-0.0134768965694,9.79285803112,"(2.5e-05, 0.0, 0.0, 0.0, 2.5e-05, 0.0, 0.0, 0.0, 2.5e-05)"
1970/01/01/01:00:07.530000,746,7,530000000,base,-0.000695834638142,-0.00601696599805,0.00875855647586,0.999943298204,"(2.6030820491461885e-07, 0.0, 0.0, 0.0, 2.6030820491461885e-07, 0.0, 0.0, 0.0, 0.0)",0.00505512239188,-0.0119714385258,-0.0152525927252,"(2.5e-05, 0.0, 0.0, 0.0, 2.5e-05, 0.0, 0.0, 0.0, 2.5e-05)",0.113273440872,-0.0082625103612,9.80054844846,"(2.5e-05, 0.0, 0.0, 0.0, 2.5e-05, 0.0, 0.0, 0.0, 2.5e-05)"
1970/01/01/01:00:07.540000,747,7,540000000,base,-0.000695750025354,-0.00601705212961,0.00875848604323,0.999943298361,"(2.6030820491461885e-07, 0.0, 0.0, 0.0, 2.6030820491461885e-07, 0.0, 0.0, 0.0, 0.0)",-0.00285066947935,-0.0125604112967,-0.0109796786166,"(2.5e-05, 0.0, 0.0, 0.0, 2.5e-05, 0.0, 0.0, 0.0, 2.5e-05)",0.124902124963,-0.0205265885603,9.80293314751,"(2.5e-05, 0.0, 0.0, 0.0, 2.5e-05, 0.0, 0.0, 0.0, 2.5e-05)"
1970/01/01/01:00:07.550000,748,7,550000000,base,-0.000695699742549,-0.00601718451558,0.00875841573823,0.999943298216,"(2.6030820491461885e-07, 0.0, 0.0, 0.0, 2.6030820491461885e-07, 0.0, 0.0, 0.0, 0.0)",-0.00247061219333,0.00863073339203,-0.00670562062188,"(2.5e-05, 0.0, 0.0, 0.0, 2.5e-05, 0.0, 0.0, 0.0, 2.5e-05)",0.118644839446,-0.0150158713297,9.80083797908,"(2.5e-05, 0.0, 0.0, 0.0, 2.5e-05, 0.0, 0.0, 0.0, 2.5e-05)"
1970/01/01/01:00:07.560000,749,7,560000000,base,-0.000695618018574,-0.00601721396103,0.00875834533229,0.999943298712,"(2.6030820491461885e-07, 0.0, 0.0, 0.0, 2.6030820491461885e-07, 0.0, 0.0, 0.0, 0.0)",0.00259492745833,-0.00962172993236,-0.0168825839295,"(2.5e-05, 0.0, 0.0, 0.0, 2.5e-05, 0.0, 0.0, 0.0, 2.5e-05)",0.110818271832,-0.0217251281558,9.79632719863,"(2.5e-05, 0.0, 0.0, 0.0, 2.5e-05, 0.0, 0.0, 0.0, 2.5e-05)"
1970/01/01/01:00:07.570000,750,7,570000000,base,-0.000695586743593,-0.00601731346497,0.00875827512226,0.99994329875,"(2.6030820491461885e-07, 0.0, 0.0, 0.0, 2.6030820491461885e-07, 0.0, 0.0, 0.0, 0.0)",-0.00150458650972,-0.00651691827865,-0.0175201701766,"(2.5e-05, 0.0, 0.0, 0.0, 2.5e-05, 0.0, 0.0, 0.0, 2.5e-05)",0.112353582504,-0.0135456567173,9.79149879336,"(2.5e-05, 0.0, 0.0, 0.0, 2.5e-05, 0.0, 0.0, 0.0, 2.5e-05)"
1970/01/01/01:00:07.580000,751,7,580000000,base,-0.00069561165479,-0.00601738109661,0.0087582052342,0.999943298938,"(2.6030820491461885e-07, 0.0, 0.0, 0.0, 2.6030820491461885e-07, 0.0, 0.0, 0.0, 0.0)",-0.00227544021814,-0.00150299049315,-0.0145666405869,"(2.5e-05, 0.0, 0.0, 0.0, 2.5e-05, 0.0, 0.0, 0.0, 2.5e-05)",0.101606593388,-0.00484657200009,9.79405530057,"(2.5e-05, 0.0, 0.0, 0.0, 2.5e-05, 0.0, 0.0, 0.0, 2.5e-05)"
1970/01/01/01:00:07.590000,752,7,590000000,base,-0.000695704878084,-0.00601756467926,0.00875813559969,0.999943298378,"(2.6030820491461885e-07, 0.0, 0.0, 0.0, 2.6030820491461885e-07, 0.0, 0.0, 0.0, 0.0)",0.0011421269988,-0.0102695560686,-0.0066295561533,"(2.5e-05, 0.0, 0.0, 0.0, 2.5e-05, 0.0, 0.0, 0.0, 2.5e-05)",0.123153019669,-0.0128805102003,9.80168567551,"(2.5e-05, 0.0, 0.0, 0.0, 2.5e-05, 0.0, 0.0, 0.0, 2.5e-05)"
1970/01/01/01:00:07.600000,753,7,600000000,base,-0.000695736769454,-0.00601752613827,0.00875806580848,0.999943299199,"(2.6030820491461885e-07, 0.0, 0.0, 0.0, 2.6030820491461885e-07, 0.0, 0.0, 0.0, 0.0)",-0.00760068965048,0.00325587447971,-0.0128655854862,"(2.5e-05, 0.0, 0.0, 0.0, 2.5e-05, 0.0, 0.0, 0.0, 2.5e-05)",0.113169421501,-0.0138920899516,9.8040218222,"(2.5e-05, 0.0, 0.0, 0.0, 2.5e-05, 0.0, 0.0, 0.0, 2.5e-05)"
1970/01/01/01:00:07.610000,754,7,610000000,base,-0.00069576475887,-0.00601762645112,0.00875799584802,0.999943299189,"(2.6030820491461885e-07, 0.0, 0.0, 0.0, 2.6030820491461885e-07, 0.0, 0.0, 0.0, 0.0)",0.00767143764135,-0.0110283243432,-0.0123772422917,"(2.5e-05, 0.0, 0.0, 0.0, 2.5e-05, 0.0, 0.0, 0.0, 2.5e-05)",0.113788786713,-0.0033132350621,9.79968059206,"(2.5e-05, 0.0, 0.0, 0.0, 2.5e-05, 0.0, 0.0, 0.0, 2.5e-05)"
1970/01/01/01:00:07.620000,755,7,620000000,base,-0.000695788803552,-0.00601766975111,0.00875792589871,0.999943299524,"(2.6030820491461885e-07, 0.0, 0.0, 0.0, 2.6030820491461885e-07, 0.0, 0.0, 0.0, 0.0)",-0.00502427201396,-0.00181927939032,-0.0165303988148,"(2.5e-05, 0.0, 0.0, 0.0, 2.5e-05, 0.0, 0.0, 0.0, 2.5e-05)",0.116450129,-0.0160501378584,9.80434880219,"(2.5e-05, 0.0, 0.0, 0.0, 2.5e-05, 0.0, 0.0, 0.0, 2.5e-05)"
1970/01/01/01:00:07.630000,756,7,630000000,base,-0.000695812315406,-0.00601770167444,0.00875785593771,0.999943299928,"(2.6030820491461885e-07, 0.0, 0.0, 0.0, 2.6030820491461885e-07, 0.0, 0.0, 0.0, 0.0)",0.00890170112461,-0.00637627629971,-0.00538146028302,"(2.5e-05, 0.0, 0.0, 0.0, 2.5e-05, 0.0, 0.0, 0.0, 2.5e-05)",0.110245914056,-0.0125617778489,9.7978452583,"(2.5e-05, 0.0, 0.0, 0.0, 2.5e-05, 0.0, 0.0, 0.0, 2.5e-05)"
1970/01/01/01:00:07.640000,757,7,640000000,base,-0.000682620100533,-0.00759739209149,0.00841774647815,0.999935475522,"(2.6030820491461885e-07, 0.0, 0.0, 0.0, 2.6030820491461885e-07, 0.0, 0.0, 0.0, 0.0)",0.000782722063029,-0.321031467465,-0.0837976978444,"(2.5e-05, 0.0, 0.0, 0.0, 2.5e-05, 0.0, 0.0, 0.0, 2.5e-05)",0.807849599679,0.537839217656,0.297599005768,"(2.5e-05, 0.0, 0.0, 0.0, 2.5e-05, 0.0, 0.0, 0.0, 2.5e-05)"
1970/01/01/01:00:07.650000,758,7,650000000,base,-0.00160758205429,-0.00743118819101,0.00799598728639,0.999939126802,"(2.6030820491461885e-07, 0.0, 0.0, 0.0, 2.6030820491461885e-07, 0.0, 0.0, 0.0, 0.0)",-0.176087080769,0.0276066234366,-0.0871629773291,"(2.5e-05, 0.0, 0.0, 0.0, 2.5e-05, 0.0, 0.0, 0.0, 2.5e-05)",-0.443270506102,0.509021423113,11.8200654247,"(2.5e-05, 0.0, 0.0, 0.0, 2.5e-05, 0.0, 0.0, 0.0, 2.5e-05)"
1970/01/01/01:00:07.660000,759,7,660000000,base,-0.00218495792737,-0.00736045620471,0.00770427365834,0.999940845156,"(2.6030820491461885e-07, 0.0, 0.0, 0.0, 2.6030820491461885e-07, 0.0, 0.0, 0.0, 0.0)",-0.123970944231,0.0145581285148,-0.0621151152585,"(2.5e-05, 0.0, 0.0, 0.0, 2.5e-05, 0.0, 0.0, 0.0, 2.5e-05)",2.29573050978,0.988755237698,8.72543101948,"(2.5e-05, 0.0, 0.0, 0.0, 2.5e-05, 0.0, 0.0, 0.0, 2.5e-05)"
1970/01/01/01:00:07.670000,760,7,670000000,base,-0.00252159531266,-0.00823942511802,0.00757738983633,0.99993416613,"(2.6030820491461885e-07, 0.0, 0.0, 0.0, 2.6030820491461885e-07, 0.0, 0.0, 0.0, 0.0)",-0.0650294289461,-0.176485899317,-0.0486731297383,"(2.5e-05, 0.0, 0.0, 0.0, 2.5e-05, 0.0, 0.0, 0.0, 2.5e-05)",3.25591705113,1.09069734792,8.06143324915,"(2.5e-05, 0.0, 0.0, 0.0, 2.5e-05, 0.0, 0.0, 0.0, 2.5e-05)"
1970/01/01/01:00:07.680000,761,7,680000000,base,-0.00316888839847,-0.00987175844723,0.00768068413062,0.999916753346,"(2.6030820491461885e-07, 0.0, 0.0, 0.0, 2.6030820491461885e-07, 0.0, 0.0, 0.0, 0.0)",-0.139079473993,-0.333392458199,0.00714398652128,"(2.5e-05, 0.0, 0.0, 0.0, 2.5e-05, 0.0, 0.0, 0.0, 2.5e-05)",4.18345305724,1.22772874058,8.23860165842,"(2.5e-05, 0.0, 0.0, 0.0, 2.5e-05, 0.0, 0.0, 0.0, 2.5e-05)"
1970/01/01/01:00:07.690000,762,7,690000000,base,-0.0041420620811,-0.0125409245819,0.00805096723654,0.999880368074,"(2.6030820491461885e-07, 0.0, 0.0, 0.0, 2.6030820491461885e-07, 0.0, 0.0, 0.0, 0.0)",-0.192156072697,-0.539142964618,0.0702221123165,"(2.5e-05, 0.0, 0.0, 0.0, 2.5e-05, 0.0, 0.0, 0.0, 2.5e-05)",4.22448262172,1.65095322439,8.77628202243,"(2.5e-05, 0.0, 0.0, 0.0, 2.5e-05, 0.0, 0.0, 0.0, 2.5e-05)"
1970/01/01/01:00:07.700000,763,7,700000000,base,-0.00578782982472,-0.0156137044038,0.0085204736357,0.99982504209,"(2.6030820491461885e-07, 0.0, 0.0, 0.0, 2.6030820491461885e-07, 0.0, 0.0, 0.0, 0.0)",-0.333581560987,-0.611931701648,0.0861268358471,"(2.5e-05, 0.0, 0.0, 0.0, 2.5e-05, 0.0, 0.0, 0.0, 2.5e-05)",3.55118555236,2.0604993422,10.1653973336,"(2.5e-05, 0.0, 0.0, 0.0, 2.5e-05, 0.0, 0.0, 0.0, 2.5e-05)"
1970/01/01/01:00:07.710000,764,7,710000000,base,-0.0080762405803,-0.0187139540882,0.00901455110759,0.999751619218,"(2.6030820491461885e-07, 0.0, 0.0, 0.0, 2.6030820491461885e-07, 0.0, 0.0, 0.0, 0.0)",-0.466619735649,-0.62067185024,0.0882416002083,"(2.5e-05, 0.0, 0.0, 0.0, 2.5e-05, 0.0, 0.0, 0.0, 2.5e-05)",3.31749458456,2.28531926294,11.1687226491,"(2.5e-05, 0.0, 0.0, 0.0, 2.5e-05, 0.0, 0.0, 0.0, 2.5e-05)"
1970/01/01/01:00:07.720000,765,7,720000000,base,-0.0108897903487,-0.0217086675486,0.00958222110561,0.999659105525,"(2.6030820491461885e-07, 0.0, 0.0, 0.0, 2.6030820491461885e-07, 0.0, 0.0, 0.0, 0.0)",-0.564623178509,-0.599040968615,0.108152102012,"(2.5e-05, 0.0, 0.0, 0.0, 2.5e-05, 0.0, 0.0, 0.0, 2.5e-05)",3.24164709023,2.29497464658,11.8181103395,"(2.5e-05, 0.0, 0.0, 0.0, 2.5e-05, 0.0, 0.0, 0.0, 2.5e-05)"
1970/01/01/01:00:07.730000,766,7,730000000,base,-0.0141861293438,-0.0245369150653,0.0102808907909,0.999545395076,"(2.6030820491461885e-07, 0.0, 0.0, 0.0, 2.6030820491461885e-07, 0.0, 0.0, 0.0, 0.0)",-0.659392116603,-0.561371085412,0.133606734758,"(2.5e-05, 0.0, 0.0, 0.0, 2.5e-05, 0.0, 0.0, 0.0, 2.5e-05)",3.17006399429,2.12230572703,12.3326246279,"(2.5e-05, 0.0, 0.0, 0.0, 2.5e-05, 0.0, 0.0, 0.0, 2.5e-05)"
1970/01/01/01:00:07.740000,767,7,740000000,base,-0.0162689956424,-0.0248481394138,0.0123986808512,0.999481947041,"(2.6030820491461885e-07, 0.0, 0.0, 0.0, 2.6030820491461885e-07, 0.0, 0.0, 0.0, 0.0)",-0.402935985281,-0.0713038258536,0.418910753373,"(2.5e-05, 0.0, 0.0, 0.0, 2.5e-05, 0.0, 0.0, 0.0, 2.5e-05)",-0.523167768097,-2.85476520232,21.2675317831,"(2.5e-05, 0.0, 0.0, 0.0, 2.5e-05, 0.0, 0.0, 0.0, 2.5e-05)"
1970/01/01/01:00:07.750000,768,7,750000000,base,-0.0164595912707,-0.0220161335582,0.0169414589131,0.999478543386,"(2.6030820491461885e-07, 0.0, 0.0, 0.0, 2.6030820491461885e-07, 0.0, 0.0, 0.0, 0.0)",-0.000286872016323,0.545531569165,0.906008860463,"(2.5e-05, 0.0, 0.0, 0.0, 2.5e-05, 0.0, 0.0, 0.0, 2.5e-05)",2.89268243104,-5.19156296186,18.5200328813,"(2.5e-05, 0.0, 0.0, 0.0, 2.5e-05, 0.0, 0.0, 0.0, 2.5e-05)"
1970/01/01/01:00:07.760000,769,7,760000000,base,-0.0157418182734,-0.0184013892532,0.022132050003,0.999461733331,"(2.6030820491461885e-07, 0.0, 0.0, 0.0, 2.6030820491461885e-07, 0.0, 0.0, 0.0, 0.0)",0.174627022357,0.697567898669,1.03062803894,"(2.5e-05, 0.0, 0.0, 0.0, 2.5e-05, 0.0, 0.0, 0.0, 2.5e-05)",4.86901829688,-4.45301440769,14.1360701525,"(2.5e-05, 0.0, 0.0, 0.0, 2.5e-05, 0.0, 0.0, 0.0, 2.5e-05)"
1970/01/01/01:00:07.770000,770,7,770000000,base,-0.0145791176091,-0.0160395433293,0.0269148693644,0.999402707714,"(2.6030820491461885e-07, 0.0, 0.0, 0.0, 2.6030820491461885e-07, 0.0, 0.0, 0.0, 0.0)",0.253492153243,0.442988124304,0.949006970558,"(2.5e-05, 0.0, 0.0, 0.0, 2.5e-05, 0.0, 0.0, 0.0, 2.5e-05)",7.06434584853,-2.55529853378,6.81765648012,"(2.5e-05, 0.0, 0.0, 0.0, 2.5e-05, 0.0, 0.0, 0.0, 2.5e-05)"
1970/01/01/01:00:07.779000,771,7,780000000,base,-0.0132010487212,-0.0144021012799,0.031448769357,0.999314408331,"(2.6030820491461885e-07, 0.0, 0.0, 0.0, 2.6030820491461885e-07, 0.0, 0.0, 0.0, 0.0)",0.300342046134,0.297667024637,0.891696353647,"(2.5e-05, 0.0, 0.0, 0.0, 2.5e-05, 0.0, 0.0, 0.0, 2.5e-05)",2.8471963969,-1.71322271913,3.09160821729,"(2.5e-05, 0.0, 0.0, 0.0, 2.5e-05, 0.0, 0.0, 0.0, 2.5e-05)"
1970/01/01/01:00:07.790000,772,7,790000000,base,-0.0118504769247,-0.0128882516699,0.0356382836924,0.999211374986,"(2.6030820491461885e-07, 0.0, 0.0, 0.0, 2.6030820491461885e-07, 0.0, 0.0, 0.0, 0.0)",0.292248614538,0.27353553216,0.826491241381,"(2.5e-05, 0.0, 0.0, 0.0, 2.5e-05, 0.0, 0.0, 0.0, 2.5e-05)",1.36202398585,-2.04763081832,3.55094564153,"(2.5e-05, 0.0, 0.0, 0.0, 2.5e-05, 0.0, 0.0, 0.0, 2.5e-05)"
1970/01/01/01:00:07.800000,773,7,800000000,base,-0.0111568288949,-0.0115646940145,0.0392343032265,0.999100821975,"(2.6030820491461885e-07, 0.0, 0.0, 0.0, 2.6030820491461885e-07, 0.0, 0.0, 0.0, 0.0)",0.162676562131,0.245230752961,0.719114791144,"(2.5e-05, 0.0, 0.0, 0.0, 2.5e-05, 0.0, 0.0, 0.0, 2.5e-05)",0.534585880669,-1.38172343434,5.31732552816,"(2.5e-05, 0.0, 0.0, 0.0, 2.5e-05, 0.0, 0.0, 0.0, 2.5e-05)"
1970/01/01/01:00:07.810000,774,7,810000000,base,-0.0105156659726,-0.0101924163096,0.0423624530804,0.998994973955,"(2.6030820491461885e-07, 0.0, 0.0, 0.0, 2.6030820491461885e-07, 0.0, 0.0, 0.0, 0.0)",0.148186054961,0.263535928779,0.61941179837,"(2.5e-05, 0.0, 0.0, 0.0, 2.5e-05, 0.0, 0.0, 0.0, 2.5e-05)",-0.000752858346405,-0.713983030264,6.75724493128,"(2.5e-05, 0.0, 0.0, 0.0, 2.5e-05, 0.0, 0.0, 0.0, 2.5e-05)"
1970/01/01/01:00:07.820000,775,7,820000000,base,-0.00981634678022,-0.00877074529032,0.0451227509934,0.998894714525,"(2.6030820491461885e-07, 0.0, 0.0, 0.0, 2.6030820491461885e-07, 0.0, 0.0, 0.0, 0.0)",0.151547264917,0.266961427452,0.536890310191,"(2.5e-05, 0.0, 0.0, 0.0, 2.5e-05, 0.0, 0.0, 0.0, 2.5e-05)",-0.267912216118,-0.258839836965,8.01112013734,"(2.5e-05, 0.0, 0.0, 0.0, 2.5e-05, 0.0, 0.0, 0.0, 2.5e-05)"
1970/01/01/01:00:07.830000,776,7,830000000,base,-0.00907102649045,-0.00740773780943,0.0476104402152,0.998797320722,"(2.6030820491461885e-07, 0.0, 0.0, 0.0, 2.6030820491461885e-07, 0.0, 0.0, 0.0, 0.0)",0.163472710101,0.257768555529,0.491611802071,"(2.5e-05, 0.0, 0.0, 0.0, 2.5e-05, 0.0, 0.0, 0.0, 2.5e-05)",-0.466882692912,0.0914154547343,9.00732441115,"(2.5e-05, 0.0, 0.0, 0.0, 2.5e-05, 0.0, 0.0, 0.0, 2.5e-05)"
1970/01/01/01:00:07.840000,777,7,840000000,base,-0.00830909436913,-0.00619539667123,0.0499090949318,0.998699984106,"(2.6030820491461885e-07, 0.0, 0.0, 0.0, 2.6030820491461885e-07, 0.0, 0.0, 0.0, 0.0)",0.170740821511,0.220460609626,0.457121237552,"(2.5e-05, 0.0, 0.0, 0.0, 2.5e-05, 0.0, 0.0, 0.0, 2.5e-05)",-0.620861353534,0.354003694141,9.77231536983,"(2.5e-05, 0.0, 0.0, 0.0, 2.5e-05, 0.0, 0.0, 0.0, 2.5e-05)"
1970/01/01/01:00:07.850000,778,7,850000000,base,-0.00755223720189,-0.00520806557034,0.0520881760625,0.998600351332,"(2.6030820491461885e-07, 0.0, 0.0, 0.0, 2.6030820491461885e-07, 0.0, 0.0, 0.0, 0.0)",0.152846625223,0.185787694695,0.432730331979,"(2.5e-05, 0.0, 0.0, 0.0, 2.5e-05, 0.0, 0.0, 0.0, 2.5e-05)",-0.723108488009,0.52416589327,10.2919685799,"(2.5e-05, 0.0, 0.0, 0.0, 2.5e-05, 0.0, 0.0, 0.0, 2.5e-05)"
1970/01/01/01:00:07.860000,779,7,860000000,base,-0.00680969153595,-0.00449318785703,0.0542019034033,0.99849666651,"(2.6030820491461885e-07, 0.0, 0.0, 0.0, 2.6030820491461885e-07, 0.0, 0.0, 0.0, 0.0)",0.16378989106,0.133003483955,0.428948874656,"(2.5e-05, 0.0, 0.0, 0.0, 2.5e-05, 0.0, 0.0, 0.0, 2.5e-05)",-0.781645766425,0.59929662709,10.6052008172,"(2.5e-05, 0.0, 0.0, 0.0, 2.5e-05, 0.0, 0.0, 0.0, 2.5e-05)"
1970/01/01/01:00:07.870000,780,7,870000000,base,-0.00607949693237,-0.00407005772983,0.0562899370387,0.998387658846,"(2.6030820491461885e-07, 0.0, 0.0, 0.0, 2.6030820491461885e-07, 0.0, 0.0, 0.0, 0.0)",0.154825931763,0.0617122387081,0.405726377571,"(2.5e-05, 0.0, 0.0, 0.0, 2.5e-05, 0.0, 0.0, 0.0, 2.5e-05)",-0.809961278847,0.611029045314,10.7772856712,"(2.5e-05, 0.0, 0.0, 0.0, 2.5e-05, 0.0, 0.0, 0.0, 2.5e-05)"
1970/01/01/01:00:07.880000,781,7,880000000,base,-0.00535272787886,-0.0039312983244,0.0583789713344,0.998272402155,"(2.6030820491461885e-07, 0.0, 0.0, 0.0, 2.6030820491461885e-07, 0.0, 0.0, 0.0, 0.0)",0.150305066144,0.0201565037477,0.402715549427,"(2.5e-05, 0.0, 0.0, 0.0, 2.5e-05, 0.0, 0.0, 0.0, 2.5e-05)",-0.783596520414,0.576763927484,10.8259332387,"(2.5e-05, 0.0, 0.0, 0.0, 2.5e-05, 0.0, 0.0, 0.0, 2.5e-05)"
1970/01/01/01:00:07.890000,782,7,890000000,base,-0.00461841684612,-0.00404832468544,0.0604849496484,0.998150215228,"(2.6030820491461885e-07, 0.0, 0.0, 0.0, 2.6030820491461885e-07, 0.0, 0.0, 0.0, 0.0)",0.137958137301,-0.0400171821767,0.408923848257,"(2.5e-05, 0.0, 0.0, 0.0, 2.5e-05, 0.0, 0.0, 0.0, 2.5e-05)",-0.735519200154,0.504372055865,10.806575177,"(2.5e-05, 0.0, 0.0, 0.0, 2.5e-05, 0.0, 0.0, 0.0, 2.5e-05)"
1970/01/01/01:00:07.900000,783,7,900000000,base,-0.00386169497214,-0.00438370393697,0.0626148704306,0.998020665344,"(2.6030820491461885e-07, 0.0, 0.0, 0.0, 2.6030820491461885e-07, 0.0, 0.0, 0.0, 0.0)",0.154164842208,-0.0784937481917,0.41604628353,"(2.5e-05, 0.0, 0.0, 0.0, 2.5e-05, 0.0, 0.0, 0.0, 2.5e-05)",-0.635856500854,0.409037825964,10.736911999,"(2.5e-05, 0.0, 0.0, 0.0, 2.5e-05, 0.0, 0.0, 0.0, 2.5e-05)"
1970/01/01/01:00:07.910000,784,7,910000000,base,-0.00306865425966,-0.00485113473452,0.0647393959842,0.997885695088,"(2.6030820491461885e-07, 0.0, 0.0, 0.0, 2.6030820491461885e-07, 0.0, 0.0, 0.0, 0.0)",0.151937637951,-0.112718333722,0.422502440589,"(2.5e-05, 0.0, 0.0, 0.0, 2.5e-05, 0.0, 0.0, 0.0, 2.5e-05)",-0.0199753347779,0.414168484337,10.7961394951,"(2.5e-05, 0.0, 0.0, 0.0, 2.5e-05, 0.0, 0.0, 0.0, 2.5e-05)"
1970/01/01/01:00:07.920000,785,7,920000000,base,-0.00205385252398,-0.00595668022494,0.0667294762235,0.997751209798,"(2.6030820491461885e-07, 0.0, 0.0, 0.0, 2.6030820491461885e-07, 0.0, 0.0, 0.0, 0.0)",0.186623421539,-0.240576418994,0.38577805293,"(2.5e-05, 0.0, 0.0, 0.0, 2.5e-05, 0.0, 0.0, 0.0, 2.5e-05)",1.70969892379,0.0653685463836,9.73296060881,"(2.5e-05, 0.0, 0.0, 0.0, 2.5e-05, 0.0, 0.0, 0.0, 2.5e-05)"
1970/01/01/01:00:07.930000,786,7,930000000,base,-0.000751827871854,-0.00766128539656,0.0686558014738,0.997610705829,"(2.6030820491461885e-07, 0.0, 0.0, 0.0, 2.6030820491461885e-07, 0.0, 0.0, 0.0, 0.0)",0.239200665157,-0.362019292339,0.374687864461,"(2.5e-05, 0.0, 0.0, 0.0, 2.5e-05, 0.0, 0.0, 0.0, 2.5e-05)",1.22352132391,-0.303470928048,10.0249566073,"(2.5e-05, 0.0, 0.0, 0.0, 2.5e-05, 0.0, 0.0, 0.0, 2.5e-05)"
1970/01/01/01:00:07.940000,787,7,940000000,base,0.000897307325748,-0.00954201676923,0.0706484682161,0.997455231424,"(2.6030820491461885e-07, 0.0, 0.0, 0.0, 2.6030820491461885e-07, 0.0, 0.0, 0.0, 0.0)",0.312719168603,-0.403893708832,0.390883344881,"(2.5e-05, 0.0, 0.0, 0.0, 2.5e-05, 0.0, 0.0, 0.0, 2.5e-05)",1.06124074692,-0.612426459778,10.2617469664,"(2.5e-05, 0.0, 0.0, 0.0, 2.5e-05, 0.0, 0.0, 0.0, 2.5e-05)"
1970/01/01/01:00:07.950000,788,7,950000000,base,0.00283343660079,-0.0114617296263,0.0727526438412,0.99728012775,"(2.6030820491461885e-07, 0.0, 0.0, 0.0, 2.6030820491461885e-07, 0.0, 0.0, 0.0, 0.0)",0.359879536611,-0.413872975588,0.40419919935,"(2.5e-05, 0.0, 0.0, 0.0, 2.5e-05, 0.0, 0.0, 0.0, 2.5e-05)",1.17948240691,-0.765805095916,10.4123148668,"(2.5e-05, 0.0, 0.0, 0.0, 2.5e-05, 0.0, 0.0, 0.0, 2.5e-05)"
1970/01/01/01:00:07.960000,789,7,960000000,base,0.00502514080564,-0.0133834740838,0.0749715114747,0.997083197656,"(2.6030820491461885e-07, 0.0, 0.0, 0.0, 2.6030820491461885e-07, 0.0, 0.0, 0.0, 0.0)",0.412092983905,-0.416934554023,0.421383088624,"(2.5e-05, 0.0, 0.0, 0.0, 2.5e-05, 0.0, 0.0, 0.0, 2.5e-05)",1.39621289817,-0.803437241352,10.5189008835,"(2.5e-05, 0.0, 0.0, 0.0, 2.5e-05, 0.0, 0.0, 0.0, 2.5e-05)"
1970/01/01/01:00:07.970000,790,7,970000000,base,0.00746429174641,-0.0152891799391,0.0772850863018,0.99686385267,"(2.6030820491461885e-07, 0.0, 0.0, 0.0, 2.6030820491461885e-07, 0.0, 0.0, 0.0, 0.0)",0.459066005116,-0.423300664357,0.450150028083,"(2.5e-05, 0.0, 0.0, 0.0, 2.5e-05, 0.0, 0.0, 0.0, 2.5e-05)",1.6046788561,-0.761079698357,10.6079711765,"(2.5e-05, 0.0, 0.0, 0.0, 2.5e-05, 0.0, 0.0, 0.0, 2.5e-05)"
1970/01/01/01:00:07.980000,791,7,980000000,base,0.0101409565337,-0.0171490537684,0.0796553401451,0.996623347981,"(2.6030820491461885e-07, 0.0, 0.0, 0.0, 2.6030820491461885e-07, 0.0, 0.0, 0.0, 0.0)",0.511619890569,-0.417533827107,0.459201322656,"(2.5e-05, 0.0, 0.0, 0.0, 2.5e-05, 0.0, 0.0, 0.0, 2.5e-05)",1.74555135951,-0.664922524153,10.6550468838,"(2.5e-05, 0.0, 0.0, 0.0, 2.5e-05, 0.0, 0.0, 0.0, 2.5e-05)"
1970/01/01/01:00:07.990000,792,7,990000000,base,0.0130424323273,-0.0189236406361,0.0820234471615,0.996365367172,"(2.6030820491461885e-07, 0.0, 0.0, 0.0, 2.6030820491461885e-07, 0.0, 0.0, 0.0, 0.0)",0.555423809417,-0.391178771983,0.461097927559,"(2.5e-05, 0.0, 0.0, 0.0, 2.5e-05, 0.0, 0.0, 0.0, 2.5e-05)",1.68702150714,-0.554409562262,10.3572451991,"(2.5e-05, 0.0, 0.0, 0.0, 2.5e-05, 0.0, 0.0, 0.0, 2.5e-05)"
1970/01/01/01:00:08.000000,793,8,0,base,0.0137888043075,-0.0186879668296,0.0831211777186,0.996268788323,"(2.6030820491461885e-07, 0.0, 0.0, 0.0, 2.6030820491461885e-07, 0.0, 0.0, 0.0, 0.0)",0.162578463993,0.0380982002874,0.195458331036,"(2.5e-05, 0.0, 0.0, 0.0, 2.5e-05, 0.0, 0.0, 0.0, 2.5e-05)",-1.63774755194,3.83949753146,18.3900131312,"(2.5e-05, 0.0, 0.0, 0.0, 2.5e-05, 0.0, 0.0, 0.0, 2.5e-05)"
1970/01/01/01:00:08.012000,794,8,10000000,base,0.0130697110707,-0.0166872094477,0.0826118391734,0.996356363819,"(2.6030820491461885e-07, 0.0, 0.0, 0.0, 2.6030820491461885e-07, 0.0, 0.0, 0.0, 0.0)",-0.107237819896,0.392308880759,-0.117866703414,"(2.5e-05, 0.0, 0.0, 0.0, 2.5e-05, 0.0, 0.0, 0.0, 2.5e-05)",1.73218234202,4.99793712391,13.8074588302,"(2.5e-05, 0.0, 0.0, 0.0, 2.5e-05, 0.0, 0.0, 0.0, 2.5e-05)"
1970/01/01/01:00:08.020000,795,8,20000000,base,0.0115865619385,-0.0137324516299,0.0815384527597,0.996508229809,"(2.6030820491461885e-07, 0.0, 0.0, 0.0, 2.6030820491461885e-07, 0.0, 0.0, 0.0, 0.0)",-0.251128219022,0.60417274938,-0.220997824125,"(2.5e-05, 0.0, 0.0, 0.0, 2.5e-05, 0.0, 0.0, 0.0, 2.5e-05)",2.41622083183,3.40803776029,7.25124572656,"(2.5e-05, 0.0, 0.0, 0.0, 2.5e-05, 0.0, 0.0, 0.0, 2.5e-05)"
1970/01/01/01:00:08.030000,796,8,30000000,base,0.0103158124223,-0.0121950851259,0.080749844718,0.996606405002,"(2.6030820491461885e-07, 0.0, 0.0, 0.0, 2.6030820491461885e-07, 0.0, 0.0, 0.0, 0.0)",-0.237439076387,0.317574408714,-0.169692971477,"(2.5e-05, 0.0, 0.0, 0.0, 2.5e-05, 0.0, 0.0, 0.0, 2.5e-05)",3.54656385007,1.16699529005,2.14325003696,"(2.5e-05, 0.0, 0.0, 0.0, 2.5e-05, 0.0, 0.0, 0.0, 2.5e-05)"
1970/01/01/01:00:08.040000,797,8,40000000,base,0.00832377390857,-0.011106157586,0.080222436332,0.996680354357,"(2.6030820491461885e-07, 0.0, 0.0, 0.0, 2.6030820491461885e-07, 0.0, 0.0, 0.0, 0.0)",-0.388686333587,0.246125698703,-0.106780634379,"(2.5e-05, 0.0, 0.0, 0.0, 2.5e-05, 0.0, 0.0, 0.0, 2.5e-05)",1.24828185588,0.737905943351,1.37347363369,"(2.5e-05, 0.0, 0.0, 0.0, 2.5e-05, 0.0, 0.0, 0.0, 2.5e-05)"
1970/01/01/01:00:08.050000,798,8,50000000,base,0.00666097142656,-0.0102472170754,0.0802228691954,0.996702020295,"(2.6030820491461885e-07, 0.0, 0.0, 0.0, 2.6030820491461885e-07, 0.0, 0.0, 0.0, 0.0)",-0.317735180212,0.19749583471,-0.00524869938432,"(2.5e-05, 0.0, 0.0, 0.0, 2.5e-05, 0.0, 0.0, 0.0, 2.5e-05)",-0.511523119305,0.91024115197,5.11414819388,"(2.5e-05, 0.0, 0.0, 0.0, 2.5e-05, 0.0, 0.0, 0.0, 2.5e-05)"
1970/01/01/01:00:08.060000,799,8,60000000,base,0.00527413610053,-0.009475632595,0.0806136210327,0.996686430117,"(2.6030820491461885e-07, 0.0, 0.0, 0.0, 2.6030820491461885e-07, 0.0, 0.0, 0.0, 0.0)",-0.26121048061,0.173227787586,0.0734546489826,"(2.5e-05, 0.0, 0.0, 0.0, 2.5e-05, 0.0, 0.0, 0.0, 2.5e-05)",-1.24451384192,0.335657309241,7.10270309173,"(2.5e-05, 0.0, 0.0, 0.0, 2.5e-05, 0.0, 0.0, 0.0, 2.5e-05)"
1970/01/01/01:00:08.070000,800,8,70000000,base,0.00399670128633,-0.00873967838614,0.0812693207953,0.996645845774,"(2.6030820491461885e-07, 0.0, 0.0, 0.0, 2.6030820491461885e-07, 0.0, 0.0, 0.0, 0.0)",-0.24244394431,0.163427478615,0.118752992121,"(2.5e-05, 0.0, 0.0, 0.0, 2.5e-05, 0.0, 0.0, 0.0, 2.5e-05)",-1.41829133235,0.0606036563229,8.60341194303,"(2.5e-05, 0.0, 0.0, 0.0, 2.5e-05, 0.0, 0.0, 0.0, 2.5e-05)"
1970/01/01/01:00:08.080000,801,8,80000000,base,0.00282419656123,-0.00809676157986,0.0821161299077,0.996585875665,"(2.6030820491461885e-07, 0.0, 0.0, 0.0, 2.6030820491461885e-07, 0.0, 0.0, 0.0, 0.0)",-0.223482851504,0.143629919936,0.149017399667,"(2.5e-05, 0.0, 0.0, 0.0, 2.5e-05, 0.0, 0.0, 0.0, 2.5e-05)",-1.38859703143,-0.118036376733,9.72823416534,"(2.5e-05, 0.0, 0.0, 0.0, 2.5e-05, 0.0, 0.0, 0.0, 2.5e-05)"
1970/01/01/01:00:08.090000,802,8,90000000,base,0.00176197728927,-0.00762898881852,0.0831006022176,0.996510403296,"(2.6030820491461885e-07, 0.0, 0.0, 0.0, 2.6030820491461885e-07, 0.0, 0.0, 0.0, 0.0)",-0.198158028664,0.110933780855,0.183156577527,"(2.5e-05, 0.0, 0.0, 0.0, 2.5e-05, 0.0, 0.0, 0.0, 2.5e-05)",-1.23288104714,-0.210893988568,10.4803137109,"(2.5e-05, 0.0, 0.0, 0.0, 2.5e-05, 0.0, 0.0, 0.0, 2.5e-05)"
1970/01/01/01:00:08.100000,803,8,100000000,base,0.000799490035456,-0.00740423957338,0.0841801513159,0.996422721628,"(2.6030820491461885e-07, 0.0, 0.0, 0.0, 2.6030820491461885e-07, 0.0, 0.0, 0.0, 0.0)",-0.181216701481,0.0492802506058,0.207847220159,"(2.5e-05, 0.0, 0.0, 0.0, 2.5e-05, 0.0, 0.0, 0.0, 2.5e-05)",-1.05620640043,-0.229170523173,10.968847803,"(2.5e-05, 0.0, 0.0, 0.0, 2.5e-05, 0.0, 0.0, 0.0, 2.5e-05)"
1970/01/01/01:00:08.110000,804,8,110000000,base,-8.44171389988e-05,-0.00746991326017,0.0852825449241,0.996328801551,"(2.6030820491461885e-07, 0.0, 0.0, 0.0, 2.6030820491461885e-07, 0.0, 0.0, 0.0, 0.0)",-0.173997541195,0.00446834620573,0.217572553765,"(2.5e-05, 0.0, 0.0, 0.0, 2.5e-05, 0.0, 0.0, 0.0, 2.5e-05)",-1.3637569358,-0.376080487009,11.2787270314,"(2.5e-05, 0.0, 0.0, 0.0, 2.5e-05, 0.0, 0.0, 0.0, 2.5e-05)"
1970/01/01/01:00:08.120000,805,8,120000000,base,-0.00102277811055,-0.00766460857783,0.0864313422275,0.996227800647,"(2.6030820491461885e-07, 0.0, 0.0, 0.0, 2.6030820491461885e-07, 0.0, 0.0, 0.0, 0.0)",-0.18196269362,-0.0140786655015,0.220172507901,"(2.5e-05, 0.0, 0.0, 0.0, 2.5e-05, 0.0, 0.0, 0.0, 2.5e-05)",-0.756194216387,-0.105597569165,11.4230322282,"(2.5e-05, 0.0, 0.0, 0.0, 2.5e-05, 0.0, 0.0, 0.0, 2.5e-05)"
1970/01/01/01:00:08.130000,806,8,130000000,base,-0.00181456849077,-0.00823173984075,0.0876498883779,0.996115677453,"(2.6030820491461885e-07, 0.0, 0.0, 0.0, 2.6030820491461885e-07, 0.0, 0.0, 0.0, 0.0)",-0.172312900975,-0.11190235228,0.235916548216,"(2.5e-05, 0.0, 0.0, 0.0, 2.5e-05, 0.0, 0.0, 0.0, 2.5e-05)",-0.280302680783,0.0581281222091,11.1885372711,"(2.5e-05, 0.0, 0.0, 0.0, 2.5e-05, 0.0, 0.0, 0.0, 2.5e-05)"
1970/01/01/01:00:08.140000,807,8,140000000,base,-0.00257709226598,-0.00914171509032,0.0888936006306,0.995995841059,"(2.6030820491461885e-07, 0.0, 0.0, 0.0, 2.6030820491461885e-07, 0.0, 0.0, 0.0, 0.0)",-0.162526774643,-0.175790537084,0.237929274746,"(2.5e-05, 0.0, 0.0, 0.0, 2.5e-05, 0.0, 0.0, 0.0, 2.5e-05)",-0.0456990603462,0.241494459586,11.0532934893,"(2.5e-05, 0.0, 0.0, 0.0, 2.5e-05, 0.0, 0.0, 0.0, 2.5e-05)"
1970/01/01/01:00:08.150000,808,8,150000000,base,-0.0033998631892,-0.010310128891,0.0901303541791,0.995870805591,"(2.6030820491461885e-07, 0.0, 0.0, 0.0, 2.6030820491461885e-07, 0.0, 0.0, 0.0, 0.0)",-0.181040143405,-0.223126846099,0.242003538905,"(2.5e-05, 0.0, 0.0, 0.0, 2.5e-05, 0.0, 0.0, 0.0, 2.5e-05)",0.134613522184,0.450357903714,10.9394612927,"(2.5e-05, 0.0, 0.0, 0.0, 2.5e-05, 0.0, 0.0, 0.0, 2.5e-05)"
1970/01/01/01:00:08.160000,809,8,160000000,base,-0.00433190898114,-0.0116530111979,0.0913468734123,0.995741528014,"(2.6030820491461885e-07, 0.0, 0.0, 0.0, 2.6030820491461885e-07, 0.0, 0.0, 0.0, 0.0)",-0.205874840651,-0.253541795921,0.235910153665,"(2.5e-05, 0.0, 0.0, 0.0, 2.5e-05, 0.0, 0.0, 0.0, 2.5e-05)",0.301718722868,0.619451881433,10.8243583335,"(2.5e-05, 0.0, 0.0, 0.0, 2.5e-05, 0.0, 0.0, 0.0, 2.5e-05)"
1970/01/01/01:00:08.170000,810,8,170000000,base,-0.00538663560823,-0.0131130673266,0.0925483077423,0.995607273153,"(2.6030820491461885e-07, 0.0, 0.0, 0.0, 2.6030820491461885e-07, 0.0, 0.0, 0.0, 0.0)",-0.238658502945,-0.279943153573,0.229575733886,"(2.5e-05, 0.0, 0.0, 0.0, 2.5e-05, 0.0, 0.0, 0.0, 2.5e-05)",0.439779922465,0.769866738689,10.7674256521,"(2.5e-05, 0.0, 0.0, 0.0, 2.5e-05, 0.0, 0.0, 0.0, 2.5e-05)"
1970/01/01/01:00:08.180000,811,8,180000000,base,-0.00661797404297,-0.0146221508266,0.0937366462015,0.99546764703,"(2.6030820491461885e-07, 0.0, 0.0, 0.0, 2.6030820491461885e-07, 0.0, 0.0, 0.0, 0.0)",-0.270113334604,-0.280259459862,0.238586300687,"(2.5e-05, 0.0, 0.0, 0.0, 2.5e-05, 0.0, 0.0, 0.0, 2.5e-05)",0.72776183746,0.822457278463,10.5397142814,"(2.5e-05, 0.0, 0.0, 0.0, 2.5e-05, 0.0, 0.0, 0.0, 2.5e-05)"
1970/01/01/01:00:08.190000,812,8,190000000,base,-0.00798655954459,-0.01618933993,0.0949355973969,0.99531972375,"(2.6030820491461885e-07, 0.0, 0.0, 0.0, 2.6030820491461885e-07, 0.0, 0.0, 0.0, 0.0)",-0.304397471668,-0.289828463248,0.234317154683,"(2.5e-05, 0.0, 0.0, 0.0, 2.5e-05, 0.0, 0.0, 0.0, 2.5e-05)",0.92040806525,0.893970789398,10.4192630196,"(2.5e-05, 0.0, 0.0, 0.0, 2.5e-05, 0.0, 0.0, 0.0, 2.5e-05)"
1970/01/01/01:00:08.202000,813,8,200000000,base,-0.00951462507898,-0.0178099125872,0.0961574999967,0.995161300553,"(2.6030820491461885e-07, 0.0, 0.0, 0.0, 2.6030820491461885e-07, 0.0, 0.0, 0.0, 0.0)",-0.321865725027,-0.306115839765,0.232170572271,"(2.5e-05, 0.0, 0.0, 0.0, 2.5e-05, 0.0, 0.0, 0.0, 2.5e-05)",1.17313067906,0.94043947903,10.3182733851,"(2.5e-05, 0.0, 0.0, 0.0, 2.5e-05, 0.0, 0.0, 0.0, 2.5e-05)"
1970/01/01/01:00:08.210000,814,8,210000000,base,-0.0112087366319,-0.0194904342995,0.0974173039763,0.994989626117,"(2.6030820491461885e-07, 0.0, 0.0, 0.0, 2.6030820491461885e-07, 0.0, 0.0, 0.0, 0.0)",-0.36784718126,-0.315744736292,0.247079344084,"(2.5e-05, 0.0, 0.0, 0.0, 2.5e-05, 0.0, 0.0, 0.0, 2.5e-05)",1.46018996423,0.956330446963,10.2695442496,"(2.5e-05, 0.0, 0.0, 0.0, 2.5e-05, 0.0, 0.0, 0.0, 2.5e-05)"
1970/01/01/01:00:08.220000,815,8,220000000,base,-0.0131024315035,-0.0212137320235,0.0987178374055,0.994803042034,"(2.6030820491461885e-07, 0.0, 0.0, 0.0, 2.6030820491461885e-07, 0.0, 0.0, 0.0, 0.0)",-0.40623497196,-0.313259118056,0.249525035197,"(2.5e-05, 0.0, 0.0, 0.0, 2.5e-05, 0.0, 0.0, 0.0, 2.5e-05)",1.6692824728,0.953582543831,10.3024202026,"(2.5e-05, 0.0, 0.0, 0.0, 2.5e-05, 0.0, 0.0, 0.0, 2.5e-05)"
1970/01/01/01:00:08.230000,816,8,230000000,base,-0.0152003267387,-0.0229567334027,0.100071233734,0.994599259319,"(2.6030820491461885e-07, 0.0, 0.0, 0.0, 2.6030820491461885e-07, 0.0, 0.0, 0.0, 0.0)",-0.447151818124,-0.313628602543,0.271966600037,"(2.5e-05, 0.0, 0.0, 0.0, 2.5e-05, 0.0, 0.0, 0.0, 2.5e-05)",1.87093185635,0.928390617059,10.3799465823,"(2.5e-05, 0.0, 0.0, 0.0, 2.5e-05, 0.0, 0.0, 0.0, 2.5e-05)"
1970/01/01/01:00:08.240000,817,8,240000000,base,-0.0175076617867,-0.024663764265,0.10148541787,0.994377136941,"(2.6030820491461885e-07, 0.0, 0.0, 0.0, 2.6030820491461885e-07, 0.0, 0.0, 0.0, 0.0)",-0.483504722101,-0.294198376151,0.27397776579,"(2.5e-05, 0.0, 0.0, 0.0, 2.5e-05, 0.0, 0.0, 0.0, 2.5e-05)",1.88739805618,0.808370783836,10.625661776,"(2.5e-05, 0.0, 0.0, 0.0, 2.5e-05, 0.0, 0.0, 0.0, 2.5e-05)"
1970/01/01/01:00:08.250000,818,8,250000000,base,-0.0190529565196,-0.0237553122759,0.104404299545,0.99406861545,"(2.6030820491461885e-07, 0.0, 0.0, 0.0, 2.6030820491461885e-07, 0.0, 0.0, 0.0, 0.0)",-0.277198231602,0.199498420008,0.586612177543,"(2.5e-05, 0.0, 0.0, 0.0, 2.5e-05, 0.0, 0.0, 0.0, 2.5e-05)",-2.18652365871,-4.35078406909,18.3440989814,"(2.5e-05, 0.0, 0.0, 0.0, 2.5e-05, 0.0, 0.0, 0.0, 2.5e-05)"
1970/01/01/01:00:08.260000,819,8,260000000,base,-0.0186486099345,-0.0203918629982,0.109199061217,0.993635731191,"(2.6030820491461885e-07, 0.0, 0.0, 0.0, 2.6030820491461885e-07, 0.0, 0.0, 0.0, 0.0)",0.173005378058,0.641142991369,0.963444481807,"(2.5e-05, 0.0, 0.0, 0.0, 2.5e-05, 0.0, 0.0, 0.0, 2.5e-05)",2.10023969426,-4.596184306,14.3640778655,"(2.5e-05, 0.0, 0.0, 0.0, 2.5e-05, 0.0, 0.0, 0.0, 2.5e-05)"
1970/01/01/01:00:08.270000,820,8,270000000,base,-0.0173798059763,-0.0173693699416,0.113970452759,0.993180237032,"(2.6030820491461885e-07, 0.0, 0.0, 0.0, 2.6030820491461885e-07, 0.0, 0.0, 0.0, 0.0)",0.336848274707,0.541272988628,0.958219618506,"(2.5e-05, 0.0, 0.0, 0.0, 2.5e-05, 0.0, 0.0, 0.0, 2.5e-05)",5.71347502992,-3.66521373429,8.73122242996,"(2.5e-05, 0.0, 0.0, 0.0, 2.5e-05, 0.0, 0.0, 0.0, 2.5e-05)"
1970/01/01/01:00:08.280000,821,8,280000000,base,-0.0157466347919,-0.0154378762799,0.118427841035,0.992717765499,"(2.6030820491461885e-07, 0.0, 0.0, 0.0, 2.6030820491461885e-07, 0.0, 0.0, 0.0, 0.0)",0.386058555705,0.329845618623,0.905940263448,"(2.5e-05, 0.0, 0.0, 0.0, 2.5e-05, 0.0, 0.0, 0.0, 2.5e-05)",3.2496241802,-1.81758220145,3.23488360187,"(2.5e-05, 0.0, 0.0, 0.0, 2.5e-05, 0.0, 0.0, 0.0, 2.5e-05)"
1970/01/01/01:00:08.290000,822,8,290000000,base,-0.0139153068158,-0.0136780457891,0.12287752562,0.992230008112,"(2.6030820491461885e-07, 0.0, 0.0, 0.0, 2.6030820491461885e-07, 0.0, 0.0, 0.0, 0.0)",0.418689304185,0.296992570201,0.866119113056,"(2.5e-05, 0.0, 0.0, 0.0, 2.5e-05, 0.0, 0.0, 0.0, 2.5e-05)",1.17039699498,-1.80651608082,1.92385348042,"(2.5e-05, 0.0, 0.0, 0.0, 2.5e-05, 0.0, 0.0, 0.0, 2.5e-05)"
1970/01/01/01:00:08.300000,823,8,300000000,base,-0.0119005609029,-0.0116897958229,0.1272432756,0.991731250964,"(2.6030820491461885e-07, 0.0, 0.0, 0.0, 2.6030820491461885e-07, 0.0, 0.0, 0.0, 0.0)",0.463811612863,0.336020406536,0.862182127676,"(2.5e-05, 0.0, 0.0, 0.0, 2.5e-05, 0.0, 0.0, 0.0, 2.5e-05)",1.07528024454,-1.55643479448,2.56854621933,"(2.5e-05, 0.0, 0.0, 0.0, 2.5e-05, 0.0, 0.0, 0.0, 2.5e-05)"
1970/01/01/01:00:08.310000,824,8,310000000,base,-0.01012365334,-0.00935573356981,0.131351880434,0.99123996358,"(2.6030820491461885e-07, 0.0, 0.0, 0.0, 2.6030820491461885e-07, 0.0, 0.0, 0.0, 0.0)",0.420112023789,0.401829574144,0.817421635095,"(2.5e-05, 0.0, 0.0, 0.0, 2.5e-05, 0.0, 0.0, 0.0, 2.5e-05)",-0.207299281473,-0.836060757352,5.12581376572,"(2.5e-05, 0.0, 0.0, 0.0, 2.5e-05, 0.0, 0.0, 0.0, 2.5e-05)"
1970/01/01/01:00:08.319000,825,8,320000000,base,-0.00906228995785,-0.00753687604409,0.134909174479,0.990787860766,"(2.6030820491461885e-07, 0.0, 0.0, 0.0, 2.6030820491461885e-07, 0.0, 0.0, 0.0, 0.0)",0.264129720106,0.322217049921,0.70394980515,"(2.5e-05, 0.0, 0.0, 0.0, 2.5e-05, 0.0, 0.0, 0.0, 2.5e-05)",-1.47270283479,-0.0226928910694,8.47737665117,"(2.5e-05, 0.0, 0.0, 0.0, 2.5e-05, 0.0, 0.0, 0.0, 2.5e-05)"
1970/01/01/01:00:08.330000,826,8,330000000,base,-0.0084443388406,-0.00598229388161,0.138014260998,0.990376175533,"(2.6030820491461885e-07, 0.0, 0.0, 0.0, 2.6030820491461885e-07, 0.0, 0.0, 0.0, 0.0)",0.160995413506,0.278735244405,0.614126244111,"(2.5e-05, 0.0, 0.0, 0.0, 2.5e-05, 0.0, 0.0, 0.0, 2.5e-05)",-1.68029880261,0.349246952483,9.5946035934,"(2.5e-05, 0.0, 0.0, 0.0, 2.5e-05, 0.0, 0.0, 0.0, 2.5e-05)"
1970/01/01/01:00:08.340000,827,8,340000000,base,-0.00806044706513,-0.00467956611553,0.140748292031,0.990001539971,"(2.6030820491461885e-07, 0.0, 0.0, 0.0, 2.6030820491461885e-07, 0.0, 0.0, 0.0, 0.0)",0.116910509913,0.232400076127,0.541121340385,"(2.5e-05, 0.0, 0.0, 0.0, 2.5e-05, 0.0, 0.0, 0.0, 2.5e-05)",-1.65651506553,0.665554156524,10.3270500863,"(2.5e-05, 0.0, 0.0, 0.0, 2.5e-05, 0.0, 0.0, 0.0, 2.5e-05)"
1970/01/01/01:00:08.350000,828,8,350000000,base,-0.00776445104588,-0.00358342325895,0.143176157283,0.989660275227,"(2.6030820491461885e-07, 0.0, 0.0, 0.0, 2.6030820491461885e-07, 0.0, 0.0, 0.0, 0.0)",0.0988897176978,0.187954769241,0.472552300622,"(2.5e-05, 0.0, 0.0, 0.0, 2.5e-05, 0.0, 0.0, 0.0, 2.5e-05)",-1.53170199497,0.908135002487,10.8767998383,"(2.5e-05, 0.0, 0.0, 0.0, 2.5e-05, 0.0, 0.0, 0.0, 2.5e-05)"
1970/01/01/01:00:08.360000,829,8,360000000,base,-0.00750344718828,-0.00279231453453,0.145355976485,0.989347027771,"(2.6030820491461885e-07, 0.0, 0.0, 0.0, 2.6030820491461885e-07, 0.0, 0.0, 0.0, 0.0)",0.0852136402237,0.136587349589,0.422164818561,"(2.5e-05, 0.0, 0.0, 0.0, 2.5e-05, 0.0, 0.0, 0.0, 2.5e-05)",-1.36765936098,0.935022527595,11.1595783432,"(2.5e-05, 0.0, 0.0, 0.0, 2.5e-05, 0.0, 0.0, 0.0, 2.5e-05)"
1970/01/01/01:00:08.370000,830,8,370000000,base,-0.00723153402586,-0.00231610923731,0.147348209081,0.98905553223,"(2.6030820491461885e-07, 0.0, 0.0, 0.0, 2.6030820491461885e-07, 0.0, 0.0, 0.0, 0.0)",0.0696142938832,0.0803116403362,0.390432945514,"(2.5e-05, 0.0, 0.0, 0.0, 2.5e-05, 0.0, 0.0, 0.0, 2.5e-05)",-1.20645914968,0.879062945667,11.2966981876,"(2.5e-05, 0.0, 0.0, 0.0, 2.5e-05, 0.0, 0.0, 0.0, 2.5e-05)"
1970/01/01/01:00:08.380000,831,8,380000000,base,-0.00692724311547,-0.00214781063335,0.149207584329,0.988779296401,"(2.6030820491461885e-07, 0.0, 0.0, 0.0, 2.6030820491461885e-07, 0.0, 0.0, 0.0, 0.0)",0.0640631300307,0.0209657464023,0.369776253299,"(2.5e-05, 0.0, 0.0, 0.0, 2.5e-05, 0.0, 0.0, 0.0, 2.5e-05)",-1.03242517031,0.753276617013,11.289785028,"(2.5e-05, 0.0, 0.0, 0.0, 2.5e-05, 0.0, 0.0, 0.0, 2.5e-05)"
1970/01/01/01:00:08.390000,832,8,390000000,base,-0.00657460750096,-0.00225875395365,0.150982664802,0.988511966289,"(2.6030820491461885e-07, 0.0, 0.0, 0.0, 2.6030820491461885e-07, 0.0, 0.0, 0.0, 0.0)",0.0636361551052,-0.0442962291777,0.350406136187,"(2.5e-05, 0.0, 0.0, 0.0, 2.5e-05, 0.0, 0.0, 0.0, 2.5e-05)",-0.846716030628,0.579596050846,11.1881449024,"(2.5e-05, 0.0, 0.0, 0.0, 2.5e-05, 0.0, 0.0, 0.0, 2.5e-05)"
1970/01/01/01:00:08.399000,833,8,400000000,base,-0.00615832731447,-0.00260243084319,0.15271365709,0.988247864302,"(2.6030820491461885e-07, 0.0, 0.0, 0.0, 2.6030820491461885e-07, 0.0, 0.0, 0.0, 0.0)",0.0739266254445,-0.0811118265326,0.338617726573,"(2.5e-05, 0.0, 0.0, 0.0, 2.5e-05, 0.0, 0.0, 0.0, 2.5e-05)",-0.635434908119,0.393839628991,11.0325555227,"(2.5e-05, 0.0, 0.0, 0.0, 2.5e-05, 0.0, 0.0, 0.0, 2.5e-05)"
1970/01/01/01:00:08.410000,834,8,410000000,base,-0.00566085169375,-0.00312623093378,0.154431973954,0.987982260397,"(2.6030820491461885e-07, 0.0, 0.0, 0.0, 2.6030820491461885e-07, 0.0, 0.0, 0.0, 0.0)",0.0873205754222,-0.127625100754,0.339995660129,"(2.5e-05, 0.0, 0.0, 0.0, 2.5e-05, 0.0, 0.0, 0.0, 2.5e-05)",-0.420278991717,0.187340966419,10.8751765734,"(2.5e-05, 0.0, 0.0, 0.0, 2.5e-05, 0.0, 0.0, 0.0, 2.5e-05)"
1970/01/01/01:00:08.420000,835,8,420000000,base,-0.00507433936803,-0.00377219977295,0.156158815142,0.987711722135,"(2.6030820491461885e-07, 0.0, 0.0, 0.0, 2.6030820491461885e-07, 0.0, 0.0, 0.0, 0.0)",0.0939923316932,-0.1506524475,0.341515937081,"(2.5e-05, 0.0, 0.0, 0.0, 2.5e-05, 0.0, 0.0, 0.0, 2.5e-05)",-0.178416621267,0.0252742847456,10.667212543,"(2.5e-05, 0.0, 0.0, 0.0, 2.5e-05, 0.0, 0.0, 0.0, 2.5e-05)"
1970/01/01/01:00:08.430000,836,8,430000000,base,-0.00437733671536,-0.00451344766433,0.157911876458,0.987433191151,"(2.6030820491461885e-07, 0.0, 0.0, 0.0, 2.6030820491461885e-07, 0.0, 0.0, 0.0, 0.0)",0.106251943828,-0.180900853514,0.350876528284,"(2.5e-05, 0.0, 0.0, 0.0, 2.5e-05, 0.0, 0.0, 0.0, 2.5e-05)",0.0590934021013,-0.144771172993,10.5009119233,"(2.5e-05, 0.0, 0.0, 0.0, 2.5e-05, 0.0, 0.0, 0.0, 2.5e-05)"
1970/01/01/01:00:08.440000,837,8,440000000,base,-0.0035480990083,-0.00532825069625,0.159707020595,0.987143701956,"(2.6030820491461885e-07, 0.0, 0.0, 0.0, 2.6030820491461885e-07, 0.0, 0.0, 0.0, 0.0)",0.143374188505,-0.187941938092,0.351939559151,"(2.5e-05, 0.0, 0.0, 0.0, 2.5e-05, 0.0, 0.0, 0.0, 2.5e-05)",0.3440905774,-0.275497796124,10.3577352879,"(2.5e-05, 0.0, 0.0, 0.0, 2.5e-05, 0.0, 0.0, 0.0, 2.5e-05)"
1970/01/01/01:00:08.450000,838,8,450000000,base,-0.00256196746076,-0.00620909471648,0.161560995595,0.986839869567,"(2.6030820491461885e-07, 0.0, 0.0, 0.0, 2.6030820491461885e-07, 0.0, 0.0, 0.0, 0.0)",0.164537706264,-0.210463085512,0.362844298742,"(2.5e-05, 0.0, 0.0, 0.0, 2.5e-05, 0.0, 0.0, 0.0, 2.5e-05)",0.634247866437,-0.387414670242,10.258879453,"(2.5e-05, 0.0, 0.0, 0.0, 2.5e-05, 0.0, 0.0, 0.0, 2.5e-05)"
1970/01/01/01:00:08.464000,839,8,460000000,base,-0.00139441407341,-0.00714898371269,0.163490066725,0.986518091939,"(2.6030820491461885e-07, 0.0, 0.0, 0.0, 2.6030820491461885e-07, 0.0, 0.0, 0.0, 0.0)",0.202968341054,-0.229533521143,0.389478390881,"(2.5e-05, 0.0, 0.0, 0.0, 2.5e-05, 0.0, 0.0, 0.0, 2.5e-05)",0.944164907381,-0.47310598735,10.1985232549,"(2.5e-05, 0.0, 0.0, 0.0, 2.5e-05, 0.0, 0.0, 0.0, 2.5e-05)"
1970/01/01/01:00:08.470000,840,8,470000000,base,-4.23357481768e-05,-0.00810876927508,0.165488893547,0.986178316625,"(2.6030820491461885e-07, 0.0, 0.0, 0.0, 2.6030820491461885e-07, 0.0, 0.0, 0.0, 0.0)",0.230771094325,-0.243795282203,0.394649029169,"(2.5e-05, 0.0, 0.0, 0.0, 2.5e-05, 0.0, 0.0, 0.0, 2.5e-05)",1.35146531851,-0.515320432314,10.1706270377,"(2.5e-05, 0.0, 0.0, 0.0, 2.5e-05, 0.0, 0.0, 0.0, 2.5e-05)"
1970/01/01/01:00:08.480000,841,8,480000000,base,0.00153709751496,-0.00913320189739,0.167590652877,0.985813164358,"(2.6030820491461885e-07, 0.0, 0.0, 0.0, 2.6030820491461885e-07, 0.0, 0.0, 0.0, 0.0)",0.279474992369,-0.257772301467,0.412151888344,"(2.5e-05, 0.0, 0.0, 0.0, 2.5e-05, 0.0, 0.0, 0.0, 2.5e-05)",1.37350101144,-0.535282446534,10.3033919581,"(2.5e-05, 0.0, 0.0, 0.0, 2.5e-05, 0.0, 0.0, 0.0, 2.5e-05)"
1970/01/01/01:00:08.491000,842,8,490000000,base,0.00330375867735,-0.0100596336427,0.169749643837,0.985430336131,"(2.6030820491461885e-07, 0.0, 0.0, 0.0, 2.6030820491461885e-07, 0.0, 0.0, 0.0, 0.0)",0.315437239856,-0.246663608118,0.422979015796,"(2.5e-05, 0.0, 0.0, 0.0, 2.5e-05, 0.0, 0.0, 0.0, 2.5e-05)",1.5558130554,-0.479383662177,10.2575860617,"(2.5e-05, 0.0, 0.0, 0.0, 2.5e-05, 0.0, 0.0, 0.0, 2.5e-05)"
1970/01/01/01:00:08.500000,843,8,500000000,base,0.00519482503827,-0.0108395544733,0.171904539571,0.985040276906,"(2.6030820491461885e-07, 0.0, 0.0, 0.0, 2.6030820491461885e-07, 0.0, 0.0, 0.0, 0.0)",0.351745144542,-0.216668067156,0.422724555353,"(2.5e-05, 0.0, 0.0, 0.0, 2.5e-05, 0.0, 0.0, 0.0, 2.5e-05)",1.7084337601,-0.358183950228,10.0598807659,"(2.5e-05, 0.0, 0.0, 0.0, 2.5e-05, 0.0, 0.0, 0.0, 2.5e-05)"
1970/01/01/01:00:08.510000,844,8,510000000,base,0.00547378425947,-0.0104661458095,0.173218425994,0.984812608761,"(2.6030820491461885e-07, 0.0, 0.0, 0.0, 2.6030820491461885e-07, 0.0, 0.0, 0.0, 0.0)",0.0733781991503,0.0575312129044,0.261394321574,"(2.5e-05, 0.0, 0.0, 0.0, 2.5e-05, 0.0, 0.0, 0.0, 2.5e-05)",-1.31403460334,2.2636372767,15.7309054729,"(2.5e-05, 0.0, 0.0, 0.0, 2.5e-05, 0.0, 0.0, 0.0, 2.5e-05)"
1970/01/01/01:00:08.520000,845,8,520000000,base,0.00411871824727,-0.00890505555953,0.172953060631,0.984881198401,"(2.6030820491461885e-07, 0.0, 0.0, 0.0, 2.6030820491461885e-07, 0.0, 0.0, 0.0, 0.0)",-0.213908324824,0.350235305124,-0.0642521289656,"(2.5e-05, 0.0, 0.0, 0.0, 2.5e-05, 0.0, 0.0, 0.0, 2.5e-05)",1.25522706749,3.42670976521,12.1311931088,"(2.5e-05, 0.0, 0.0, 0.0, 2.5e-05, 0.0, 0.0, 0.0, 2.5e-05)"
1970/01/01/01:00:08.530000,846,8,530000000,base,0.00448135754003,-0.00802379339138,0.17252926596,0.984961516284,"(2.6030820491461885e-07, 0.0, 0.0, 0.0, 2.6030820491461885e-07, 0.0, 0.0, 0.0, 0.0)",0.112654716782,0.163753934405,-0.101773288763,"(2.5e-05, 0.0, 0.0, 0.0, 2.5e-05, 0.0, 0.0, 0.0, 2.5e-05)",2.24688913832,0.93081962949,8.26216720239,"(2.5e-05, 0.0, 0.0, 0.0, 2.5e-05, 0.0, 0.0, 0.0, 2.5e-05)"
1970/01/01/01:00:08.540000,847,8,540000000,base,0.00490150041199,-0.00786071953723,0.17225772858,0.985008354953,"(2.6030820491461885e-07, 0.0, 0.0, 0.0, 2.6030820491461885e-07, 0.0, 0.0, 0.0, 0.0)",0.0829323866788,0.0090264145566,-0.0627650306166,"(2.5e-05, 0.0, 0.0, 0.0, 2.5e-05, 0.0, 0.0, 0.0, 2.5e-05)",-0.187342263147,0.063015064917,3.87209869975,"(2.5e-05, 0.0, 0.0, 0.0, 2.5e-05, 0.0, 0.0, 0.0, 2.5e-05)"
1970/01/01/01:00:08.550000,848,8,550000000,base,0.00447325748454,-0.00765201744087,0.17237539312,0.984991451964,"(2.6030820491461885e-07, 0.0, 0.0, 0.0, 2.6030820491461885e-07, 0.0, 0.0, 0.0, 0.0)",-0.0671766455625,0.0526175671092,0.0149854330512,"(2.5e-05, 0.0, 0.0, 0.0, 2.5e-05, 0.0, 0.0, 0.0, 2.5e-05)",-1.25547507126,0.186301590262,4.25710817137,"(2.5e-05, 0.0, 0.0, 0.0, 2.5e-05, 0.0, 0.0, 0.0, 2.5e-05)"
1970/01/01/01:00:08.560000,849,8,560000000,base,0.00371932899614,-0.00726859316278,0.172904623795,0.984904729005,"(2.6030820491461885e-07, 0.0, 0.0, 0.0, 2.6030820491461885e-07, 0.0, 0.0, 0.0, 0.0)",-0.139252356185,0.101460995614,0.100540625251,"(2.5e-05, 0.0, 0.0, 0.0, 2.5e-05, 0.0, 0.0, 0.0, 2.5e-05)",-1.44735892492,0.254537108499,5.90367927762,"(2.5e-05, 0.0, 0.0, 0.0, 2.5e-05, 0.0, 0.0, 0.0, 2.5e-05)"
1970/01/01/01:00:08.570000,850,8,570000000,base,0.00290392820803,-0.00676051230064,0.173719948177,0.984767608261,"(2.6030820491461885e-07, 0.0, 0.0, 0.0, 2.6030820491461885e-07, 0.0, 0.0, 0.0, 0.0)",-0.15099896611,0.12817110502,0.150786040069,"(2.5e-05, 0.0, 0.0, 0.0, 2.5e-05, 0.0, 0.0, 0.0, 2.5e-05)",-1.41319891903,0.171373450868,7.36356018555,"(2.5e-05, 0.0, 0.0, 0.0, 2.5e-05, 0.0, 0.0, 0.0, 2.5e-05)"
1970/01/01/01:00:08.580000,851,8,580000000,base,0.00214310741522,-0.00622336821187,0.174698440193,0.984599985666,"(2.6030820491461885e-07, 0.0, 0.0, 0.0, 2.6030820491461885e-07, 0.0, 0.0, 0.0, 0.0)",-0.127623707053,0.128336402298,0.188178412436,"(2.5e-05, 0.0, 0.0, 0.0, 2.5e-05, 0.0, 0.0, 0.0, 2.5e-05)",-1.24560757467,0.0640127033145,8.55082302659,"(2.5e-05, 0.0, 0.0, 0.0, 2.5e-05, 0.0, 0.0, 0.0, 2.5e-05)"
1970/01/01/01:00:08.589000,852,8,590000000,base,0.00148507462565,-0.0057571103751,0.17574218666,0.984418271906,"(2.6030820491461885e-07, 0.0, 0.0, 0.0, 2.6030820491461885e-07, 0.0, 0.0, 0.0, 0.0)",-0.110152366847,0.111761227875,0.196253560077,"(2.5e-05, 0.0, 0.0, 0.0, 2.5e-05, 0.0, 0.0, 0.0, 2.5e-05)",-1.01287932561,-0.000545217298169,9.4340133284,"(2.5e-05, 0.0, 0.0, 0.0, 2.5e-05, 0.0, 0.0, 0.0, 2.5e-05)"
1970/01/01/01:00:08.600000,853,8,600000000,base,0.000932430827478,-0.00546453388328,0.176774324217,0.984235798851,"(2.6030820491461885e-07, 0.0, 0.0, 0.0, 2.6030820491461885e-07, 0.0, 0.0, 0.0, 0.0)",-0.094237304292,0.074607140785,0.198150542702,"(2.5e-05, 0.0, 0.0, 0.0, 2.5e-05, 0.0, 0.0, 0.0, 2.5e-05)",-0.827728734612,-0.0319915463923,10.1143446825,"(2.5e-05, 0.0, 0.0, 0.0, 2.5e-05, 0.0, 0.0, 0.0, 2.5e-05)"
1970/01/01/01:00:08.610000,854,8,610000000,base,0.000465873547968,-0.00539344964445,0.177747569024,0.984061225417,"(2.6030820491461885e-07, 0.0, 0.0, 0.0, 2.6030820491461885e-07, 0.0, 0.0, 0.0, 0.0)",-0.0959125800137,0.0244074436937,0.184112899935,"(2.5e-05, 0.0, 0.0, 0.0, 2.5e-05, 0.0, 0.0, 0.0, 2.5e-05)",-0.641468320719,0.0184352176753,10.5594623708,"(2.5e-05, 0.0, 0.0, 0.0, 2.5e-05, 0.0, 0.0, 0.0, 2.5e-05)"
1970/01/01/01:00:08.620000,855,8,620000000,base,6.17747727952e-05,-0.00556198395937,0.178640960736,0.983898606395,"(2.6030820491461885e-07, 0.0, 0.0, 0.0, 2.6030820491461885e-07, 0.0, 0.0, 0.0, 0.0)",-0.0816903748043,-0.0234992913823,0.183720365854,"(2.5e-05, 0.0, 0.0, 0.0, 2.5e-05, 0.0, 0.0, 0.0, 2.5e-05)",-0.39997213381,0.0971661192717,10.7822034281,"(2.5e-05, 0.0, 0.0, 0.0, 2.5e-05, 0.0, 0.0, 0.0, 2.5e-05)"
1970/01/01/01:00:08.630000,856,8,630000000,base,-0.000312408530951,-0.006002173978,0.179444668862,0.983749707561,"(2.6030820491461885e-07, 0.0, 0.0, 0.0, 2.6030820491461885e-07, 0.0, 0.0, 0.0, 0.0)",-0.0841066448788,-0.0827304020045,0.152669574677,"(2.5e-05, 0.0, 0.0, 0.0, 2.5e-05, 0.0, 0.0, 0.0, 2.5e-05)",-0.25682101329,0.208673004174,10.9257379411,"(2.5e-05, 0.0, 0.0, 0.0, 2.5e-05, 0.0, 0.0, 0.0, 2.5e-05)"
1970/01/01/01:00:08.640000,857,8,640000000,base,-0.000706045780795,-0.00669056689628,0.180162497697,0.983613853216,"(2.6030820491461885e-07, 0.0, 0.0, 0.0, 2.6030820491461885e-07, 0.0, 0.0, 0.0, 0.0)",-0.104368657964,-0.12730637187,0.132668803295,"(2.5e-05, 0.0, 0.0, 0.0, 2.5e-05, 0.0, 0.0, 0.0, 2.5e-05)",-0.101666763674,0.327815270878,10.9748764185,"(2.5e-05, 0.0, 0.0, 0.0, 2.5e-05, 0.0, 0.0, 0.0, 2.5e-05)"
1970/01/01/01:00:08.650000,858,8,650000000,base,-0.00116031994742,-0.00759171323658,0.180810356303,0.983487994132,"(2.6030820491461885e-07, 0.0, 0.0, 0.0, 2.6030820491461885e-07, 0.0, 0.0, 0.0, 0.0)",-0.121370834873,-0.161612239317,0.122486948343,"(2.5e-05, 0.0, 0.0, 0.0, 2.5e-05, 0.0, 0.0, 0.0, 2.5e-05)",0.0459715573923,0.468378274371,10.9708513777,"(2.5e-05, 0.0, 0.0, 0.0, 2.5e-05, 0.0, 0.0, 0.0, 2.5e-05)"
1970/01/01/01:00:08.660000,859,8,660000000,base,-0.0017105416076,-0.00866259222499,0.181411872411,0.983367564084,"(2.6030820491461885e-07, 0.0, 0.0, 0.0, 2.6030820491461885e-07, 0.0, 0.0, 0.0, 0.0)",-0.141203438173,-0.193634959538,0.112476800098,"(2.5e-05, 0.0, 0.0, 0.0, 2.5e-05, 0.0, 0.0, 0.0, 2.5e-05)",0.193194738833,0.585044180779,10.9388330774,"(2.5e-05, 0.0, 0.0, 0.0, 2.5e-05, 0.0, 0.0, 0.0, 2.5e-05)"
1970/01/01/01:00:08.670000,860,8,670000000,base,-0.0023841772975,-0.00986214232585,0.181994878912,0.983247129615,"(2.6030820491461885e-07, 0.0, 0.0, 0.0, 2.6030820491461885e-07, 0.0, 0.0, 0.0, 0.0)",-0.170488856672,-0.207330926449,0.109573545362,"(2.5e-05, 0.0, 0.0, 0.0, 2.5e-05, 0.0, 0.0, 0.0, 2.5e-05)",0.356402837027,0.679665804461,10.8708513208,"(2.5e-05, 0.0, 0.0, 0.0, 2.5e-05, 0.0, 0.0, 0.0, 2.5e-05)"
1970/01/01/01:00:08.680000,861,8,680000000,base,-0.00319847528456,-0.01116012391,0.18258757793,0.983121049401,"(2.6030820491461885e-07, 0.0, 0.0, 0.0, 2.6030820491461885e-07, 0.0, 0.0, 0.0, 0.0)",-0.201146957513,-0.23109583179,0.107936218091,"(2.5e-05, 0.0, 0.0, 0.0, 2.5e-05, 0.0, 0.0, 0.0, 2.5e-05)",0.535484021355,0.737919160117,10.7849190832,"(2.5e-05, 0.0, 0.0, 0.0, 2.5e-05, 0.0, 0.0, 0.0, 2.5e-05)"
1970/01/01/01:00:08.690000,862,8,690000000,base,-0.00416244650133,-0.0125429824932,0.183214706629,0.982984088836,"(2.6030820491461885e-07, 0.0, 0.0, 0.0, 2.6030820491461885e-07, 0.0, 0.0, 0.0, 0.0)",-0.232044427346,-0.237125389054,0.123174814107,"(2.5e-05, 0.0, 0.0, 0.0, 2.5e-05, 0.0, 0.0, 0.0, 2.5e-05)",0.739958182777,0.791209249654,10.6751538492,"(2.5e-05, 0.0, 0.0, 0.0, 2.5e-05, 0.0, 0.0, 0.0, 2.5e-05)"
1970/01/01/01:00:08.700000,863,8,700000000,base,-0.00528050374553,-0.0140124129887,0.183895967353,0.982831644664,"(2.6030820491461885e-07, 0.0, 0.0, 0.0, 2.6030820491461885e-07, 0.0, 0.0, 0.0, 0.0)",-0.268122215837,-0.253280287119,0.130658605527,"(2.5e-05, 0.0, 0.0, 0.0, 2.5e-05, 0.0, 0.0, 0.0, 2.5e-05)",0.968332499001,0.826266439362,10.5569107506,"(2.5e-05, 0.0, 0.0, 0.0, 2.5e-05, 0.0, 0.0, 0.0, 2.5e-05)"
1970/01/01/01:00:08.710000,864,8,710000000,base,-0.00672929031578,-0.0156371505829,0.18464506416,0.98265782267,"(2.6030820491461885e-07, 0.0, 0.0, 0.0, 2.6030820491461885e-07, 0.0, 0.0, 0.0, 0.0)",-0.333686688941,-0.271771887241,0.140666485835,"(2.5e-05, 0.0, 0.0, 0.0, 2.5e-05, 0.0, 0.0, 0.0, 2.5e-05)",1.16043566178,1.17598642415,10.4750615513,"(2.5e-05, 0.0, 0.0, 0.0, 2.5e-05, 0.0, 0.0, 0.0, 2.5e-05)"
1970/01/01/01:00:08.720000,865,8,720000000,base,-0.00763491401907,-0.0171437492354,0.185365525373,0.98249041825,"(2.6030820491461885e-07, 0.0, 0.0, 0.0, 2.6030820491461885e-07, 0.0, 0.0, 0.0, 0.0)",-0.233694421344,-0.27393636906,0.13754473589,"(2.5e-05, 0.0, 0.0, 0.0, 2.5e-05, 0.0, 0.0, 0.0, 2.5e-05)",1.64495505809,1.94677668734,10.4366280191,"(2.5e-05, 0.0, 0.0, 0.0, 2.5e-05, 0.0, 0.0, 0.0, 2.5e-05)"
1970/01/01/01:00:08.730000,866,8,730000000,base,-0.00855624326232,-0.0185229520671,0.186048570395,0.982328672289,"(2.6030820491461885e-07, 0.0, 0.0, 0.0, 2.6030820491461885e-07, 0.0, 0.0, 0.0, 0.0)",-0.224965973854,-0.240042793136,0.129382329838,"(2.5e-05, 0.0, 0.0, 0.0, 2.5e-05, 0.0, 0.0, 0.0, 2.5e-05)",1.99239608563,1.05708302045,10.4004807144,"(2.5e-05, 0.0, 0.0, 0.0, 2.5e-05, 0.0, 0.0, 0.0, 2.5e-05)"
1970/01/01/01:00:08.739000,867,8,740000000,base,-0.00989326779266,-0.0199138635672,0.186777596439,0.982150543837,"(2.6030820491461885e-07, 0.0, 0.0, 0.0, 2.6030820491461885e-07, 0.0, 0.0, 0.0, 0.0)",-0.306616076428,-0.220324169872,0.134790254896,"(2.5e-05, 0.0, 0.0, 0.0, 2.5e-05, 0.0, 0.0, 0.0, 2.5e-05)",2.13992806587,0.780863337202,10.436678831,"(2.5e-05, 0.0, 0.0, 0.0, 2.5e-05, 0.0, 0.0, 0.0, 2.5e-05)"
1970/01/01/01:00:08.750000,868,8,750000000,base,-0.011542344159,-0.0208858676237,0.187782860455,0.981920644525,"(2.6030820491461885e-07, 0.0, 0.0, 0.0, 2.6030820491461885e-07, 0.0, 0.0, 0.0, 0.0)",-0.373160305212,-0.141301937871,0.196729715163,"(2.5e-05, 0.0, 0.0, 0.0, 2.5e-05, 0.0, 0.0, 0.0, 2.5e-05)",-0.0813037067761,-0.799730198655,13.4756103436,"(2.5e-05, 0.0, 0.0, 0.0, 2.5e-05, 0.0, 0.0, 0.0, 2.5e-05)"
1970/01/01/01:00:08.760000,869,8,760000000,base,-0.0119887858294,-0.0183461763719,0.190995578201,0.981346205951,"(2.6030820491461885e-07, 0.0, 0.0, 0.0, 2.6030820491461885e-07, 0.0, 0.0, 0.0, 0.0)",0.0102328325245,0.502273755532,0.645212166774,"(2.5e-05, 0.0, 0.0, 0.0, 2.5e-05, 0.0, 0.0, 0.0, 2.5e-05)",-0.803392271948,-4.72287606943,17.0398048908,"(2.5e-05, 0.0, 0.0, 0.0, 2.5e-05, 0.0, 0.0, 0.0, 2.5e-05)"
1970/01/01/01:00:08.770000,870,8,770000000,base,-0.0111853839355,-0.0145705706441,0.195246968487,0.980582075583,"(2.6030820491461885e-07, 0.0, 0.0, 0.0, 2.6030820491461885e-07, 0.0, 0.0, 0.0, 0.0)",0.314216998065,0.696239928849,0.855491617242,"(2.5e-05, 0.0, 0.0, 0.0, 2.5e-05, 0.0, 0.0, 0.0, 2.5e-05)",2.72897853385,-4.31720121496,12.0936516713,"(2.5e-05, 0.0, 0.0, 0.0, 2.5e-05, 0.0, 0.0, 0.0, 2.5e-05)"
1970/01/01/01:00:08.780000,871,8,780000000,base,-0.00930319093408,-0.0118926284487,0.199449489899,0.979791772269,"(2.6030820491461885e-07, 0.0, 0.0, 0.0, 2.6030820491461885e-07, 0.0, 0.0, 0.0, 0.0)",0.492599505529,0.438086660755,0.845784588268,"(2.5e-05, 0.0, 0.0, 0.0, 2.5e-05, 0.0, 0.0, 0.0, 2.5e-05)",6.05843869463,-1.68767149054,4.50349819443,"(2.5e-05, 0.0, 0.0, 0.0, 2.5e-05, 0.0, 0.0, 0.0, 2.5e-05)"
1970/01/01/01:00:08.790000,872,8,790000000,base,-0.00755781325113,-0.0100668028488,0.203507662508,0.978992426038,"(2.6030820491461885e-07, 0.0, 0.0, 0.0, 2.6030820491461885e-07, 0.0, 0.0, 0.0, 0.0)",0.423471375517,0.284878969439,0.813640279148,"(2.5e-05, 0.0, 0.0, 0.0, 2.5e-05, 0.0, 0.0, 0.0, 2.5e-05)",1.22103140219,-2.19995835084,2.81663409043,"(2.5e-05, 0.0, 0.0, 0.0, 2.5e-05, 0.0, 0.0, 0.0, 2.5e-05)"
1970/01/01/01:00:08.800000,873,8,800000000,base,-0.00723818351873,-0.00903449219844,0.206979754818,0.978276733724,"(2.6030820491461885e-07, 0.0, 0.0, 0.0, 2.6030820491461885e-07, 0.0, 0.0, 0.0, 0.0)",0.105385127099,0.181868191694,0.696826051274,"(2.5e-05, 0.0, 0.0, 0.0, 2.5e-05, 0.0, 0.0, 0.0, 2.5e-05)",-0.538696648675,-1.45589716079,4.40073717598,"(2.5e-05, 0.0, 0.0, 0.0, 2.5e-05, 0.0, 0.0, 0.0, 2.5e-05)"
1970/01/01/01:00:08.810000,874,8,810000000,base,-0.00719325041519,-0.00798453985655,0.20995794283,0.977651352229,"(2.6030820491461885e-07, 0.0, 0.0, 0.0, 2.6030820491461885e-07, 0.0, 0.0, 0.0, 0.0)",0.0556436734901,0.190600814652,0.606407093235,"(2.5e-05, 0.0, 0.0, 0.0, 2.5e-05, 0.0, 0.0, 0.0, 2.5e-05)",-1.24929971072,-0.466977966829,5.82530923217,"(2.5e-05, 0.0, 0.0, 0.0, 2.5e-05, 0.0, 0.0, 0.0, 2.5e-05)"
1970/01/01/01:00:08.820000,875,8,820000000,base,-0.00710000248248,-0.00674091902541,0.212503618545,0.977111233218,"(2.6030820491461885e-07, 0.0, 0.0, 0.0, 2.6030820491461885e-07, 0.0, 0.0, 0.0, 0.0)",0.0699928712663,0.233910258193,0.515376544349,"(2.5e-05, 0.0, 0.0, 0.0, 2.5e-05, 0.0, 0.0, 0.0, 2.5e-05)",-1.42834715052,0.0925945906779,7.22754461783,"(2.5e-05, 0.0, 0.0, 0.0, 2.5e-05, 0.0, 0.0, 0.0, 2.5e-05)"
1970/01/01/01:00:08.830000,876,8,830000000,base,-0.00693340362832,-0.00544820216804,0.214666160828,0.9766476767,"(2.6030820491461885e-07, 0.0, 0.0, 0.0, 2.6030820491461885e-07, 0.0, 0.0, 0.0, 0.0)",0.0983824683223,0.244207249669,0.4311945612,"(2.5e-05, 0.0, 0.0, 0.0, 2.5e-05, 0.0, 0.0, 0.0, 2.5e-05)",-1.42727420262,0.446357498323,8.39981144976,"(2.5e-05, 0.0, 0.0, 0.0, 2.5e-05, 0.0, 0.0, 0.0, 2.5e-05)"
1970/01/01/01:00:08.840000,877,8,840000000,base,-0.00670779633964,-0.00423861257573,0.216514474341,0.976247162368,"(2.6030820491461885e-07, 0.0, 0.0, 0.0, 2.6030820491461885e-07, 0.0, 0.0, 0.0, 0.0)",0.101259977365,0.219583296032,0.37326165777,"(2.5e-05, 0.0, 0.0, 0.0, 2.5e-05, 0.0, 0.0, 0.0, 2.5e-05)",-1.37416467517,0.682106048613,9.33182664611,"(2.5e-05, 0.0, 0.0, 0.0, 2.5e-05, 0.0, 0.0, 0.0, 2.5e-05)"
1970/01/01/01:00:08.850000,878,8,850000000,base,-0.0064400823516,-0.00321854251486,0.218125626175,0.975894142584,"(2.6030820491461885e-07, 0.0, 0.0, 0.0, 2.6030820491461885e-07, 0.0, 0.0, 0.0, 0.0)",0.0867927572467,0.180435025787,0.321827303028,"(2.5e-05, 0.0, 0.0, 0.0, 2.5e-05, 0.0, 0.0, 0.0, 2.5e-05)",-1.27187113046,0.812652025621,10.0215411488,"(2.5e-05, 0.0, 0.0, 0.0, 2.5e-05, 0.0, 0.0, 0.0, 2.5e-05)"
1970/01/01/01:00:08.859000,879,8,860000000,base,-0.00614011636314,-0.00245775423092,0.219575162472,0.975573168163,"(2.6030820491461885e-07, 0.0, 0.0, 0.0, 2.6030820491461885e-07, 0.0, 0.0, 0.0, 0.0)",0.101367085183,0.126349469297,0.297307348955,"(2.5e-05, 0.0, 0.0, 0.0, 2.5e-05, 0.0, 0.0, 0.0, 2.5e-05)",-1.1750014012,0.823543861877,10.5028469138,"(2.5e-05, 0.0, 0.0, 0.0, 2.5e-05, 0.0, 0.0, 0.0, 2.5e-05)"
1970/01/01/01:00:08.869000,880,8,870000000,base,-0.00580960166708,-0.00199054158669,0.220929864838,0.975270363077,"(2.6030820491461885e-07, 0.0, 0.0, 0.0, 2.6030820491461885e-07, 0.0, 0.0, 0.0, 0.0)",0.0933300751023,0.0730948151704,0.261464245122,"(2.5e-05, 0.0, 0.0, 0.0, 2.5e-05, 0.0, 0.0, 0.0, 2.5e-05)",-1.04808559755,0.776755821903,10.7880220982,"(2.5e-05, 0.0, 0.0, 0.0, 2.5e-05, 0.0, 0.0, 0.0, 2.5e-05)"
1970/01/01/01:00:08.880000,881,8,880000000,base,-0.00544256343567,-0.00181968448925,0.222243563911,0.974974289687,"(2.6030820491461885e-07, 0.0, 0.0, 0.0, 2.6030820491461885e-07, 0.0, 0.0, 0.0, 0.0)",0.0789455204238,0.00346662183415,0.258067799105,"(2.5e-05, 0.0, 0.0, 0.0, 2.5e-05, 0.0, 0.0, 0.0, 2.5e-05)",-0.910666922375,0.654125839127,10.9253340572,"(2.5e-05, 0.0, 0.0, 0.0, 2.5e-05, 0.0, 0.0, 0.0, 2.5e-05)"
1970/01/01/01:00:08.890000,882,8,890000000,base,-0.00502730896324,-0.00192290260956,0.223555457533,0.974676349368,"(2.6030820491461885e-07, 0.0, 0.0, 0.0, 2.6030820491461885e-07, 0.0, 0.0, 0.0, 0.0)",0.0738702182192,-0.0410723046469,0.265482761522,"(2.5e-05, 0.0, 0.0, 0.0, 2.5e-05, 0.0, 0.0, 0.0, 2.5e-05)",-0.757443176216,0.497962003952,10.9393317804,"(2.5e-05, 0.0, 0.0, 0.0, 2.5e-05, 0.0, 0.0, 0.0, 2.5e-05)"
1970/01/01/01:00:08.900000,883,8,900000000,base,-0.00454958023881,-0.00225766019572,0.224890439956,0.974370819712,"(2.6030820491461885e-07, 0.0, 0.0, 0.0, 2.6030820491461885e-07, 0.0, 0.0, 0.0, 0.0)",0.0740662792199,-0.082892693813,0.260813181987,"(2.5e-05, 0.0, 0.0, 0.0, 2.5e-05, 0.0, 0.0, 0.0, 2.5e-05)",-0.597615135345,0.32984148621,10.9009553569,"(2.5e-05, 0.0, 0.0, 0.0, 2.5e-05, 0.0, 0.0, 0.0, 2.5e-05)"
1970/01/01/01:00:08.910000,884,8,910000000,base,-0.00399069838635,-0.00276982925987,0.22625440274,0.974056131654,"(2.6030820491461885e-07, 0.0, 0.0, 0.0, 2.6030820491461885e-07, 0.0, 0.0, 0.0, 0.0)",0.0857978922556,-0.127198655037,0.278914465765,"(2.5e-05, 0.0, 0.0, 0.0, 2.5e-05, 0.0, 0.0, 0.0, 2.5e-05)",-0.500694089898,0.202323226774,10.8339931843,"(2.5e-05, 0.0, 0.0, 0.0, 2.5e-05, 0.0, 0.0, 0.0, 2.5e-05)"
1970/01/01/01:00:08.921000,885,8,920000000,base,-0.00331298773635,-0.00339428691595,0.22758396867,0.973746907637,"(2.6030820491461885e-07, 0.0, 0.0, 0.0, 2.6030820491461885e-07, 0.0, 0.0, 0.0, 0.0)",0.102650384663,-0.153423035595,0.260077716925,"(2.5e-05, 0.0, 0.0, 0.0, 2.5e-05, 0.0, 0.0, 0.0, 2.5e-05)",-0.395580061258,0.0832032074462,10.4858634873,"(2.5e-05, 0.0, 0.0, 0.0, 2.5e-05, 0.0, 0.0, 0.0, 2.5e-05)"
1970/01/01/01:00:08.930000,886,8,930000000,base,-0.00256249187131,-0.0040374609634,0.228846536584,0.973450766725,"(2.6030820491461885e-07, 0.0, 0.0, 0.0, 2.6030820491461885e-07, 0.0, 0.0, 0.0, 0.0)",0.106468099567,-0.164374986832,0.24128509809,"(2.5e-05, 0.0, 0.0, 0.0, 2.5e-05, 0.0, 0.0, 0.0, 2.5e-05)",-0.276040074267,-0.0326678050123,10.9208052663,"(2.5e-05, 0.0, 0.0, 0.0, 2.5e-05, 0.0, 0.0, 0.0, 2.5e-05)"
1970/01/01/01:00:08.940000,887,8,940000000,base,-0.00172804274948,-0.00470939415501,0.230044522585,0.973167176339,"(2.6030820491461885e-07, 0.0, 0.0, 0.0, 2.6030820491461885e-07, 0.0, 0.0, 0.0, 0.0)",0.135142296989,-0.168611096064,0.230992329064,"(2.5e-05, 0.0, 0.0, 0.0, 2.5e-05, 0.0, 0.0, 0.0, 2.5e-05)",0.0579370097075,-0.124493449888,10.4625038799,"(2.5e-05, 0.0, 0.0, 0.0, 2.5e-05, 0.0, 0.0, 0.0, 2.5e-05)"
1970/01/01/01:00:08.950000,888,8,950000000,base,-0.000783797567071,-0.0054192983686,0.231184388919,0.972894544741,"(2.6030820491461885e-07, 0.0, 0.0, 0.0, 2.6030820491461885e-07, 0.0, 0.0, 0.0, 0.0)",0.153745339196,-0.188693515382,0.218980662338,"(2.5e-05, 0.0, 0.0, 0.0, 2.5e-05, 0.0, 0.0, 0.0, 2.5e-05)",0.352764637093,-0.230895358646,10.3717155906,"(2.5e-05, 0.0, 0.0, 0.0, 2.5e-05, 0.0, 0.0, 0.0, 2.5e-05)"
1970/01/01/01:00:08.960000,889,8,960000000,base,0.000299356194549,-0.00616754798698,0.232287914977,0.97262747046,"(2.6030820491461885e-07, 0.0, 0.0, 0.0, 2.6030820491461885e-07, 0.0, 0.0, 0.0, 0.0)",0.167585449798,-0.20374537222,0.220252682853,"(2.5e-05, 0.0, 0.0, 0.0, 2.5e-05, 0.0, 0.0, 0.0, 2.5e-05)",0.663086022415,-0.319169244841,10.3238093983,"(2.5e-05, 0.0, 0.0, 0.0, 2.5e-05, 0.0, 0.0, 0.0, 2.5e-05)"
1970/01/01/01:00:08.970000,890,8,970000000,base,0.00154581515905,-0.00694820448483,0.233378853377,0.972359832421,"(2.6030820491461885e-07, 0.0, 0.0, 0.0, 2.6030820491461885e-07, 0.0, 0.0, 0.0, 0.0)",0.213337638795,-0.209634541749,0.2089987838,"(2.5e-05, 0.0, 0.0, 0.0, 2.5e-05, 0.0, 0.0, 0.0, 2.5e-05)",0.975133031073,-0.399165079864,10.3064920893,"(2.5e-05, 0.0, 0.0, 0.0, 2.5e-05, 0.0, 0.0, 0.0, 2.5e-05)"
1970/01/01/01:00:08.980000,891,8,980000000,base,0.00296434109716,-0.00773669133283,0.234474966681,0.972086851207,"(2.6030820491461885e-07, 0.0, 0.0, 0.0, 2.6030820491461885e-07, 0.0, 0.0, 0.0, 0.0)",0.235733266699,-0.221952605903,0.211290226512,"(2.5e-05, 0.0, 0.0, 0.0, 2.5e-05, 0.0, 0.0, 0.0, 2.5e-05)",1.24927155814,-0.448106188971,10.3512593205,"(2.5e-05, 0.0, 0.0, 0.0, 2.5e-05, 0.0, 0.0, 0.0, 2.5e-05)"
1970/01/01/01:00:08.990000,892,8,990000000,base,0.0045382653948,-0.00848537136087,0.235580536729,0.971807189382,"(2.6030820491461885e-07, 0.0, 0.0, 0.0, 2.6030820491461885e-07, 0.0, 0.0, 0.0, 0.0)",0.264341415334,-0.223933750029,0.213405867041,"(2.5e-05, 0.0, 0.0, 0.0, 2.5e-05, 0.0, 0.0, 0.0, 2.5e-05)",1.44065518014,-0.458892678059,10.3669187021,"(2.5e-05, 0.0, 0.0, 0.0, 2.5e-05, 0.0, 0.0, 0.0, 2.5e-05)"
1970/01/01/01:00:09.000000,893,9,0,base,0.00621407004393,-0.00912342261319,0.236678276947,0.971525368539,"(2.6030820491461885e-07, 0.0, 0.0, 0.0, 2.6030820491461885e-07, 0.0, 0.0, 0.0, 0.0)",0.299333050113,-0.199618690514,0.214109832206,"(2.5e-05, 0.0, 0.0, 0.0, 2.5e-05, 0.0, 0.0, 0.0, 2.5e-05)",1.56845206712,-0.397782994688,10.2770853847,"(2.5e-05, 0.0, 0.0, 0.0, 2.5e-05, 0.0, 0.0, 0.0, 2.5e-05)"
1970/01/01/01:00:09.010000,894,9,10000000,base,0.00669584405063,-0.00896870433244,0.237275265646,0.971377978095,"(2.6030820491461885e-07, 0.0, 0.0, 0.0, 2.6030820491461885e-07, 0.0, 0.0, 0.0, 0.0)",0.0945598636801,0.00688829674347,0.102719563646,"(2.5e-05, 0.0, 0.0, 0.0, 2.5e-05, 0.0, 0.0, 0.0, 2.5e-05)",-1.29147501883,1.43876503242,15.0757609231,"(2.5e-05, 0.0, 0.0, 0.0, 2.5e-05, 0.0, 0.0, 0.0, 2.5e-05)"
1970/01/01/01:00:09.026000,895,9,20000000,base,0.00492142412008,-0.00692942460673,0.236409848111,0.971616254689,"(2.6030820491461885e-07, 0.0, 0.0, 0.0, 2.6030820491461885e-07, 0.0, 0.0, 0.0, 0.0)",-0.251752754848,0.467216677232,-0.189241444469,"(2.5e-05, 0.0, 0.0, 0.0, 2.5e-05, 0.0, 0.0, 0.0, 2.5e-05)",0.154494065858,4.55178473592,13.8189248369,"(2.5e-05, 0.0, 0.0, 0.0, 2.5e-05, 0.0, 0.0, 0.0, 2.5e-05)"
1970/01/01/01:00:09.030000,896,9,30000000,base,0.0044441720728,-0.00517273938783,0.234984322762,0.971975236391,"(2.6030820491461885e-07, 0.0, 0.0, 0.0, 2.6030820491461885e-07, 0.0, 0.0, 0.0, 0.0)",-0.0138860801447,0.362710729226,-0.30947307702,"(2.5e-05, 0.0, 0.0, 0.0, 2.5e-05, 0.0, 0.0, 0.0, 2.5e-05)",1.07730244403,1.47992903634,11.0715602438,"(2.5e-05, 0.0, 0.0, 0.0, 2.5e-05, 0.0, 0.0, 0.0, 2.5e-05)"
1970/01/01/01:00:09.040000,897,9,40000000,base,0.00489651663527,-0.00585584921906,0.233707007877,0.97227710434,"(2.6030820491461885e-07, 0.0, 0.0, 0.0, 2.6030820491461885e-07, 0.0, 0.0, 0.0, 0.0)",0.0611945784692,-0.16267379322,-0.269767434822,"(2.5e-05, 0.0, 0.0, 0.0, 2.5e-05, 0.0, 0.0, 0.0, 2.5e-05)",2.3429417581,0.413791263111,2.36042745727,"(2.5e-05, 0.0, 0.0, 0.0, 2.5e-05, 0.0, 0.0, 0.0, 2.5e-05)"
1970/01/01/01:00:09.050000,898,9,50000000,base,0.00463170708967,-0.00690485828419,0.232823021272,0.972483578775,"(2.6030820491461885e-07, 0.0, 0.0, 0.0, 2.6030820491461885e-07, 0.0, 0.0, 0.0, 0.0)",-0.0980067938392,-0.194360504919,-0.189469661075,"(2.5e-05, 0.0, 0.0, 0.0, 2.5e-05, 0.0, 0.0, 0.0, 2.5e-05)",-0.0438806520096,0.584223339064,3.58218798466,"(2.5e-05, 0.0, 0.0, 0.0, 2.5e-05, 0.0, 0.0, 0.0, 2.5e-05)"
1970/01/01/01:00:09.060000,899,9,60000000,base,0.00378153127914,-0.00766084812272,0.232300093654,0.972606640896,"(2.6030820491461885e-07, 0.0, 0.0, 0.0, 2.6030820491461885e-07, 0.0, 0.0, 0.0, 0.0)",-0.205455697919,-0.119573662322,-0.117778350607,"(2.5e-05, 0.0, 0.0, 0.0, 2.5e-05, 0.0, 0.0, 0.0, 2.5e-05)",-1.11331322831,0.599441987608,5.43743298511,"(2.5e-05, 0.0, 0.0, 0.0, 2.5e-05, 0.0, 0.0, 0.0, 2.5e-05)"
1970/01/01/01:00:09.070000,900,9,70000000,base,0.00265975253106,-0.00804835088643,0.232073608825,0.972661292461,"(2.6030820491461885e-07, 0.0, 0.0, 0.0, 2.6030820491461885e-07, 0.0, 0.0, 0.0, 0.0)",-0.241712782567,-0.0183552511641,-0.0503633052745,"(2.5e-05, 0.0, 0.0, 0.0, 2.5e-05, 0.0, 0.0, 0.0, 2.5e-05)",-1.38049226149,0.441396303339,6.97952118944,"(2.5e-05, 0.0, 0.0, 0.0, 2.5e-05, 0.0, 0.0, 0.0, 2.5e-05)"
1970/01/01/01:00:09.080000,901,9,80000000,base,0.00146723508704,-0.00818333992321,0.232077743202,0.972661709578,"(2.6030820491461885e-07, 0.0, 0.0, 0.0, 2.6030820491461885e-07, 0.0, 0.0, 0.0, 0.0)",-0.242937909935,0.0279307206349,-0.00862289294875,"(2.5e-05, 0.0, 0.0, 0.0, 2.5e-05, 0.0, 0.0, 0.0, 2.5e-05)",-1.35124896098,0.197370912274,8.23949492318,"(2.5e-05, 0.0, 0.0, 0.0, 2.5e-05, 0.0, 0.0, 0.0, 2.5e-05)"
1970/01/01/01:00:09.090000,902,9,90000000,base,0.00030365254126,-0.00822941414126,0.232247077437,0.972621961278,"(2.6030820491461885e-07, 0.0, 0.0, 0.0, 2.6030820491461885e-07, 0.0, 0.0, 0.0, 0.0)",-0.22896043749,0.0404370062997,0.0208766454726,"(2.5e-05, 0.0, 0.0, 0.0, 2.5e-05, 0.0, 0.0, 0.0, 2.5e-05)",-1.20655027524,-0.0122144026287,9.21691805163,"(2.5e-05, 0.0, 0.0, 0.0, 2.5e-05, 0.0, 0.0, 0.0, 2.5e-05)"
1970/01/01/01:00:09.100000,903,9,100000000,base,-0.000790261215249,-0.00833521612453,0.232523010429,0.972554856695,"(2.6030820491461885e-07, 0.0, 0.0, 0.0, 2.6030820491461885e-07, 0.0, 0.0, 0.0, 0.0)",-0.22061976279,0.0293023555797,0.0455485518554,"(2.5e-05, 0.0, 0.0, 0.0, 2.5e-05, 0.0, 0.0, 0.0, 2.5e-05)",-1.04705834641,-0.154395279746,9.93351751395,"(2.5e-05, 0.0, 0.0, 0.0, 2.5e-05, 0.0, 0.0, 0.0, 2.5e-05)"
1970/01/01/01:00:09.110000,904,9,110000000,base,-0.00179210539822,-0.00866146500876,0.23287792848,0.972465751484,"(2.6030820491461885e-07, 0.0, 0.0, 0.0, 2.6030820491461885e-07, 0.0, 0.0, 0.0, 0.0)",-0.217678320006,-0.0232739743921,0.0625937515619,"(2.5e-05, 0.0, 0.0, 0.0, 2.5e-05, 0.0, 0.0, 0.0, 2.5e-05)",-1.09552364057,0.733539696779,10.4812965169,"(2.5e-05, 0.0, 0.0, 0.0, 2.5e-05, 0.0, 0.0, 0.0, 2.5e-05)"
1970/01/01/01:00:09.120000,905,9,120000000,base,-0.00217495253394,-0.00885138787344,0.233173269719,0.972392487015,"(2.6030820491461885e-07, 0.0, 0.0, 0.0, 2.6030820491461885e-07, 0.0, 0.0, 0.0, 0.0)",-0.0844214416755,-0.0194961925607,0.0537182285237,"(2.5e-05, 0.0, 0.0, 0.0, 2.5e-05, 0.0, 0.0, 0.0, 2.5e-05)",-0.638805703073,-0.229691899799,10.748651334,"(2.5e-05, 0.0, 0.0, 0.0, 2.5e-05, 0.0, 0.0, 0.0, 2.5e-05)"
1970/01/01/01:00:09.131000,906,9,130000000,base,-0.00288354315473,-0.00937809845139,0.233439664521,0.972321788029,"(2.6030820491461885e-07, 0.0, 0.0, 0.0, 2.6030820491461885e-07, 0.0, 0.0, 0.0, 0.0)",-0.154186144656,-0.0747871351939,0.0412045508304,"(2.5e-05, 0.0, 0.0, 0.0, 2.5e-05, 0.0, 0.0, 0.0, 2.5e-05)",-0.330383550899,-0.62091845861,10.857958453,"(2.5e-05, 0.0, 0.0, 0.0, 2.5e-05, 0.0, 0.0, 0.0, 2.5e-05)"
1970/01/01/01:00:09.140000,907,9,140000000,base,-0.0038908840556,-0.0103741510144,0.23372466327,0.972239692561,"(2.6030820491461885e-07, 0.0, 0.0, 0.0, 2.6030820491461885e-07, 0.0, 0.0, 0.0, 0.0)",-0.24569145348,-0.146673213089,0.0467647122907,"(2.5e-05, 0.0, 0.0, 0.0, 2.5e-05, 0.0, 0.0, 0.0, 2.5e-05)",-0.304692977429,-0.465115074395,11.0461278475,"(2.5e-05, 0.0, 0.0, 0.0, 2.5e-05, 0.0, 0.0, 0.0, 2.5e-05)"
1970/01/01/01:00:09.150000,908,9,150000000,base,-0.00509365714369,-0.0117879597105,0.23403617423,0.972143079909,"(2.6030820491461885e-07, 0.0, 0.0, 0.0, 2.6030820491461885e-07, 0.0, 0.0, 0.0, 0.0)",-0.292569282525,-0.218060684356,0.0521865522779,"(2.5e-05, 0.0, 0.0, 0.0, 2.5e-05, 0.0, 0.0, 0.0, 2.5e-05)",-0.209861446978,-0.218035109733,10.9691804511,"(2.5e-05, 0.0, 0.0, 0.0, 2.5e-05, 0.0, 0.0, 0.0, 2.5e-05)"
1970/01/01/01:00:09.160000,909,9,160000000,base,-0.00643655898192,-0.01351586104,0.234368671117,0.97203251911,"(2.6030820491461885e-07, 0.0, 0.0, 0.0, 2.6030820491461885e-07, 0.0, 0.0, 0.0, 0.0)",-0.343672019549,-0.28022014828,0.0519063066478,"(2.5e-05, 0.0, 0.0, 0.0, 2.5e-05, 0.0, 0.0, 0.0, 2.5e-05)",-0.156222720588,-0.0047023868105,11.0421848599,"(2.5e-05, 0.0, 0.0, 0.0, 2.5e-05, 0.0, 0.0, 0.0, 2.5e-05)"
1970/01/01/01:00:09.170000,910,9,170000000,base,-0.00786882853693,-0.0154994868328,0.234722191586,0.971907063573,"(2.6030820491461885e-07, 0.0, 0.0, 0.0, 2.6030820491461885e-07, 0.0, 0.0, 0.0, 0.0)",-0.375259456554,-0.320644289464,0.0549517993037,"(2.5e-05, 0.0, 0.0, 0.0, 2.5e-05, 0.0, 0.0, 0.0, 2.5e-05)",-0.0444065191665,0.180781221341,10.9874804905,"(2.5e-05, 0.0, 0.0, 0.0, 2.5e-05, 0.0, 0.0, 0.0, 2.5e-05)"
1970/01/01/01:00:09.180000,911,9,180000000,base,-0.00939699024775,-0.0176647527432,0.235097750188,0.971765764442,"(2.6030820491461885e-07, 0.0, 0.0, 0.0, 2.6030820491461885e-07, 0.0, 0.0, 0.0, 0.0)",-0.409638301676,-0.348921293974,0.0684365729588,"(2.5e-05, 0.0, 0.0, 0.0, 2.5e-05, 0.0, 0.0, 0.0, 2.5e-05)",0.127275551126,0.314768619782,10.9000656042,"(2.5e-05, 0.0, 0.0, 0.0, 2.5e-05, 0.0, 0.0, 0.0, 2.5e-05)"
1970/01/01/01:00:09.189000,912,9,190000000,base,-0.0110271959431,-0.0199755212605,0.235501297102,0.971606154037,"(2.6030820491461885e-07, 0.0, 0.0, 0.0, 2.6030820491461885e-07, 0.0, 0.0, 0.0, 0.0)",-0.427111472292,-0.380664887863,0.071356688521,"(2.5e-05, 0.0, 0.0, 0.0, 2.5e-05, 0.0, 0.0, 0.0, 2.5e-05)",0.338957643966,0.408771351877,10.7740763886,"(2.5e-05, 0.0, 0.0, 0.0, 2.5e-05, 0.0, 0.0, 0.0, 2.5e-05)"
1970/01/01/01:00:09.200000,913,9,200000000,base,-0.0127712294723,-0.0224222801955,0.235938106495,0.97142542017,"(2.6030820491461885e-07, 0.0, 0.0, 0.0, 2.6030820491461885e-07, 0.0, 0.0, 0.0, 0.0)",-0.443848188913,-0.396341181254,0.0860001730254,"(2.5e-05, 0.0, 0.0, 0.0, 2.5e-05, 0.0, 0.0, 0.0, 2.5e-05)",0.622592477276,0.481916971486,10.6320921064,"(2.5e-05, 0.0, 0.0, 0.0, 2.5e-05, 0.0, 0.0, 0.0, 2.5e-05)"
1970/01/01/01:00:09.210000,914,9,210000000,base,-0.0146478592537,-0.0250084833749,0.236410083812,0.971221029555,"(2.6030820491461885e-07, 0.0, 0.0, 0.0, 2.6030820491461885e-07, 0.0, 0.0, 0.0, 0.0)",-0.483997587839,-0.416124091197,0.0918224426849,"(2.5e-05, 0.0, 0.0, 0.0, 2.5e-05, 0.0, 0.0, 0.0, 2.5e-05)",0.91880141795,0.538616838681,10.5320075587,"(2.5e-05, 0.0, 0.0, 0.0, 2.5e-05, 0.0, 0.0, 0.0, 2.5e-05)"
1970/01/01/01:00:09.220000,915,9,220000000,base,-0.016690192449,-0.0277169369973,0.236916303435,0.97099118124,"(2.6030820491461885e-07, 0.0, 0.0, 0.0, 2.6030820491461885e-07, 0.0, 0.0, 0.0, 0.0)",-0.522405676125,-0.436827388575,0.102271385194,"(2.5e-05, 0.0, 0.0, 0.0, 2.5e-05, 0.0, 0.0, 0.0, 2.5e-05)",1.234941111,0.581138926054,10.464981804,"(2.5e-05, 0.0, 0.0, 0.0, 2.5e-05, 0.0, 0.0, 0.0, 2.5e-05)"
1970/01/01/01:00:09.230000,916,9,230000000,base,-0.0188975384834,-0.0305791625861,0.23745858178,0.97073231109,"(2.6030820491461885e-07, 0.0, 0.0, 0.0, 2.6030820491461885e-07, 0.0, 0.0, 0.0, 0.0)",-0.562381217812,-0.457215372697,0.103912319865,"(2.5e-05, 0.0, 0.0, 0.0, 2.5e-05, 0.0, 0.0, 0.0, 2.5e-05)",1.51229964814,0.611177973226,10.5251125612,"(2.5e-05, 0.0, 0.0, 0.0, 2.5e-05, 0.0, 0.0, 0.0, 2.5e-05)"
1970/01/01/01:00:09.240000,917,9,240000000,base,-0.0213193637167,-0.0334152979952,0.238063239209,0.970440516842,"(2.6030820491461885e-07, 0.0, 0.0, 0.0, 2.6030820491461885e-07, 0.0, 0.0, 0.0, 0.0)",-0.606604301589,-0.446904008526,0.128814350696,"(2.5e-05, 0.0, 0.0, 0.0, 2.5e-05, 0.0, 0.0, 0.0, 2.5e-05)",0.739494061361,0.0798398728635,11.647090605,"(2.5e-05, 0.0, 0.0, 0.0, 2.5e-05, 0.0, 0.0, 0.0, 2.5e-05)"
1970/01/01/01:00:09.255000,918,9,250000000,base,-0.022760603094,-0.0332018039506,0.240380356604,0.969843739641,"(2.6030820491461885e-07, 0.0, 0.0, 0.0, 2.6030820491461885e-07, 0.0, 0.0, 0.0, 0.0)",-0.261226485147,0.103338675028,0.481179204319,"(2.5e-05, 0.0, 0.0, 0.0, 2.5e-05, 0.0, 0.0, 0.0, 2.5e-05)",-2.50164213209,-3.99721681609,17.7371523094,"(2.5e-05, 0.0, 0.0, 0.0, 2.5e-05, 0.0, 0.0, 0.0, 2.5e-05)"
1970/01/01/01:00:09.260000,919,9,260000000,base,-0.0222766234664,-0.0294786351847,0.244795019852,0.968870559141,"(2.6030820491461885e-07, 0.0, 0.0, 0.0, 2.6030820491461885e-07, 0.0, 0.0, 0.0, 0.0)",0.304492826545,0.664730585396,0.89766681632,"(2.5e-05, 0.0, 0.0, 0.0, 2.5e-05, 0.0, 0.0, 0.0, 2.5e-05)",-0.164028653773,-4.8774785628,14.9090950647,"(2.5e-05, 0.0, 0.0, 0.0, 2.5e-05, 0.0, 0.0, 0.0, 2.5e-05)"
1970/01/01/01:00:09.270000,920,9,270000000,base,-0.0205634539891,-0.0254502826434,0.249707709664,0.96776830244,"(2.6030820491461885e-07, 0.0, 0.0, 0.0, 2.6030820491461885e-07, 0.0, 0.0, 0.0, 0.0)",0.543010663827,0.658196470221,1.00027579919,"(2.5e-05, 0.0, 0.0, 0.0, 2.5e-05, 0.0, 0.0, 0.0, 2.5e-05)",4.03481937179,-4.59952224955,10.1694430617,"(2.5e-05, 0.0, 0.0, 0.0, 2.5e-05, 0.0, 0.0, 0.0, 2.5e-05)"
1970/01/01/01:00:09.280000,921,9,280000000,base,-0.0179525255134,-0.0227463977253,0.254411031701,0.96666195496,"(2.6030820491461885e-07, 0.0, 0.0, 0.0, 2.6030820491461885e-07, 0.0, 0.0, 0.0, 0.0)",0.658087024749,0.36684745701,0.948747905016,"(2.5e-05, 0.0, 0.0, 0.0, 2.5e-05, 0.0, 0.0, 0.0, 2.5e-05)",5.87097304637,-1.61990276411,3.60729846654,"(2.5e-05, 0.0, 0.0, 0.0, 2.5e-05, 0.0, 0.0, 0.0, 2.5e-05)"
1970/01/01/01:00:09.290000,922,9,290000000,base,-0.0145881997189,-0.0203627912304,0.259034387914,0.965543228986,"(2.6030820491461885e-07, 0.0, 0.0, 0.0, 2.6030820491461885e-07, 0.0, 0.0, 0.0, 0.0)",0.788557086289,0.260675667216,0.939150082044,"(2.5e-05, 0.0, 0.0, 0.0, 2.5e-05, 0.0, 0.0, 0.0, 2.5e-05)",1.55839089724,-1.31292816265,1.88360083127,"(2.5e-05, 0.0, 0.0, 0.0, 2.5e-05, 0.0, 0.0, 0.0, 2.5e-05)"
1970/01/01/01:00:09.300000,923,9,300000000,base,-0.0106922606244,-0.0176738379888,0.263507866462,0.964436060776,"(2.6030820491461885e-07, 0.0, 0.0, 0.0, 2.6030820491461885e-07, 0.0, 0.0, 0.0, 0.0)",0.914046029278,0.299934257458,0.90956605882,"(2.5e-05, 0.0, 0.0, 0.0, 2.5e-05, 0.0, 0.0, 0.0, 2.5e-05)",0.847924129021,-1.20971203582,2.11386565301,"(2.5e-05, 0.0, 0.0, 0.0, 2.5e-05, 0.0, 0.0, 0.0, 2.5e-05)"
1970/01/01/01:00:09.310000,924,9,310000000,base,-0.00621415785637,-0.0144352038878,0.267860883582,0.96332941208,"(2.6030820491461885e-07, 0.0, 0.0, 0.0, 2.6030820491461885e-07, 0.0, 0.0, 0.0, 0.0)",1.04701058929,0.373107350729,0.874759949527,"(2.5e-05, 0.0, 0.0, 0.0, 2.5e-05, 0.0, 0.0, 0.0, 2.5e-05)",0.494872347109,-1.8195180631,2.50856205867,"(2.5e-05, 0.0, 0.0, 0.0, 2.5e-05, 0.0, 0.0, 0.0, 2.5e-05)"
1970/01/01/01:00:09.320000,925,9,320000000,base,-0.00332976163713,-0.0110613229326,0.272139376446,0.962188505237,"(2.6030820491461885e-07, 0.0, 0.0, 0.0, 2.6030820491461885e-07, 0.0, 0.0, 0.0, 0.0)",0.74319039598,0.492769987528,0.878968997921,"(2.5e-05, 0.0, 0.0, 0.0, 2.5e-05, 0.0, 0.0, 0.0, 2.5e-05)",-0.209349299977,-3.07869360171,6.07976193013,"(2.5e-05, 0.0, 0.0, 0.0, 2.5e-05, 0.0, 0.0, 0.0, 2.5e-05)"
1970/01/01/01:00:09.330000,926,9,330000000,base,-0.0031612316351,-0.00913017163371,0.275699048946,0.961195443701,"(2.6030820491461885e-07, 0.0, 0.0, 0.0, 2.6030820491461885e-07, 0.0, 0.0, 0.0, 0.0)",0.143083155592,0.34237189061,0.72358932134,"(2.5e-05, 0.0, 0.0, 0.0, 2.5e-05, 0.0, 0.0, 0.0, 2.5e-05)",-0.159803668054,-0.642799729485,9.09307413437,"(2.5e-05, 0.0, 0.0, 0.0, 2.5e-05, 0.0, 0.0, 0.0, 2.5e-05)"
1970/01/01/01:00:09.340000,927,9,340000000,base,-0.00320737782126,-0.0080314596795,0.278598525701,0.960368715577,"(2.6030820491461885e-07, 0.0, 0.0, 0.0, 2.6030820491461885e-07, 0.0, 0.0, 0.0, 0.0)",0.0546979244396,0.217019983491,0.597308326156,"(2.5e-05, 0.0, 0.0, 0.0, 2.5e-05, 0.0, 0.0, 0.0, 2.5e-05)",-0.512167416457,0.985511326816,9.94417964288,"(2.5e-05, 0.0, 0.0, 0.0, 2.5e-05, 0.0, 0.0, 0.0, 2.5e-05)"
1970/01/01/01:00:09.350000,928,9,350000000,base,-0.00268138678386,-0.00728505828466,0.280907136799,0.95970355766,"(2.6030820491461885e-07, 0.0, 0.0, 0.0, 2.6030820491461885e-07, 0.0, 0.0, 0.0, 0.0)",0.13884470982,0.107056378714,0.466469724684,"(2.5e-05, 0.0, 0.0, 0.0, 2.5e-05, 0.0, 0.0, 0.0, 2.5e-05)",-0.910280931827,1.3514483593,10.8569459988,"(2.5e-05, 0.0, 0.0, 0.0, 2.5e-05, 0.0, 0.0, 0.0, 2.5e-05)"
1970/01/01/01:00:09.360000,929,9,360000000,base,-0.00163059145714,-0.00683234822955,0.282673520139,0.95919046138,"(2.6030820491461885e-07, 0.0, 0.0, 0.0, 2.6030820491461885e-07, 0.0, 0.0, 0.0, 0.0)",0.231223695293,0.0165522000108,0.353738109012,"(2.5e-05, 0.0, 0.0, 0.0, 2.5e-05, 0.0, 0.0, 0.0, 2.5e-05)",-1.10471671427,1.28000980238,11.5037909599,"(2.5e-05, 0.0, 0.0, 0.0, 2.5e-05, 0.0, 0.0, 0.0, 2.5e-05)"
1970/01/01/01:00:09.370000,930,9,370000000,base,-0.000218812029461,-0.00668088452953,0.283982735458,0.958806092943,"(2.6030820491461885e-07, 0.0, 0.0, 0.0, 2.6030820491461885e-07, 0.0, 0.0, 0.0, 0.0)",0.282130446618,-0.0554329906504,0.256196086763,"(2.5e-05, 0.0, 0.0, 0.0, 2.5e-05, 0.0, 0.0, 0.0, 2.5e-05)",-1.16200201874,1.09147429683,11.8651312832,"(2.5e-05, 0.0, 0.0, 0.0, 2.5e-05, 0.0, 0.0, 0.0, 2.5e-05)"
1970/01/01/01:00:09.380000,931,9,380000000,base,0.00142907319085,-0.00682639576137,0.284937815218,0.958520630727,"(2.6030820491461885e-07, 0.0, 0.0, 0.0, 2.6030820491461885e-07, 0.0, 0.0, 0.0, 0.0)",0.308525421629,-0.12925206493,0.179433664168,"(2.5e-05, 0.0, 0.0, 0.0, 2.5e-05, 0.0, 0.0, 0.0, 2.5e-05)",-1.10240213202,0.880687828676,11.9863027213,"(2.5e-05, 0.0, 0.0, 0.0, 2.5e-05, 0.0, 0.0, 0.0, 2.5e-05)"
1970/01/01/01:00:09.390000,932,9,390000000,base,0.00323653210404,-0.00724521113353,0.285639340878,0.958304335124,"(2.6030820491461885e-07, 0.0, 0.0, 0.0, 2.6030820491461885e-07, 0.0, 0.0, 0.0, 0.0)",0.324307562107,-0.191700334913,0.14145347997,"(2.5e-05, 0.0, 0.0, 0.0, 2.5e-05, 0.0, 0.0, 0.0, 2.5e-05)",-0.951654132077,0.655816805698,11.9208285329,"(2.5e-05, 0.0, 0.0, 0.0, 2.5e-05, 0.0, 0.0, 0.0, 2.5e-05)"
1970/01/01/01:00:09.400000,933,9,400000000,base,0.0051628764895,-0.00789826928736,0.28617388861,0.95813123711,"(2.6030820491461885e-07, 0.0, 0.0, 0.0, 2.6030820491461885e-07, 0.0, 0.0, 0.0, 0.0)",0.324026465762,-0.238601740486,0.0980925189514,"(2.5e-05, 0.0, 0.0, 0.0, 2.5e-05, 0.0, 0.0, 0.0, 2.5e-05)",-0.748163049026,0.437647468184,11.7399419122,"(2.5e-05, 0.0, 0.0, 0.0, 2.5e-05, 0.0, 0.0, 0.0, 2.5e-05)"
1970/01/01/01:00:09.410000,934,9,410000000,base,0.00718984478263,-0.00873624692531,0.286609488727,0.95798068096,"(2.6030820491461885e-07, 0.0, 0.0, 0.0, 2.6030820491461885e-07, 0.0, 0.0, 0.0, 0.0)",0.345159198946,-0.284442201606,0.0872029072878,"(2.5e-05, 0.0, 0.0, 0.0, 2.5e-05, 0.0, 0.0, 0.0, 2.5e-05)",-0.492952861667,0.23999338672,11.4936810882,"(2.5e-05, 0.0, 0.0, 0.0, 2.5e-05, 0.0, 0.0, 0.0, 2.5e-05)"
1970/01/01/01:00:09.420000,935,9,420000000,base,0.00931365439185,-0.00970973512108,0.286995764041,0.95783736005,"(2.6030820491461885e-07, 0.0, 0.0, 0.0, 2.6030820491461885e-07, 0.0, 0.0, 0.0, 0.0)",0.348817940726,-0.316351964702,0.0725000635742,"(2.5e-05, 0.0, 0.0, 0.0, 2.5e-05, 0.0, 0.0, 0.0, 2.5e-05)",-0.221749212533,0.0640311987463,11.2238548697,"(2.5e-05, 0.0, 0.0, 0.0, 2.5e-05, 0.0, 0.0, 0.0, 2.5e-05)"
